accX,accy,accZ,gyroX,gyroY,gyroZ,flex1,flex2,flex3,mag,count,label
0.0187,0.0145,-0.0215,-0.0045,0.0024,0.0162,0.0001,0.0004,0.0,0.0213,0.0,6
0.0003,0.0098,-0.0051,0.0065,0.0163,0.0137,0.0005,0.0002,0.0,0.0074,0.0,6
-0.0216,0.0331,0.0107,0.0055,-0.0026,0.0216,0.0,0.0004,0.0,0.0273,0.0,6
0.0125,-0.0021,-0.0151,-0.0061,-0.0082,0.0241,0.0005,0.0001,0.0,0.0131,0.0,6
0.0142,-0.0018,-0.0267,0.0168,-0.0038,0.0172,0.0,0.0004,0.0,0.0202,0.0,6
-0.0095,0.0187,-0.0147,0.0121,-0.0099,0.0201,0.0005,0.0001,0.0,0.0171,0.0,6
0.0062,0.0307,-0.0074,-0.0067,-0.0298,0.0136,0.0,0.0005,0.0,0.0215,0.0,6
0.028,0.0081,-0.0159,0.0064,-0.0153,0.0189,0.0006,0.0001,0.0,0.0221,0.0,6
0.0016,0.0202,-0.0009,0.0123,-0.0119,0.0259,0.0,0.0004,0.0,0.0135,0.0,6
0.0217,0.0185,-0.0024,0.0078,-0.0201,0.0299,0.0005,0.0001,0.0,0.0191,0.0,6
0.1532,0.0047,-0.0203,-0.0166,0.0478,0.0133,0.0,0.0004,0.0,0.1031,0.0,6
-0.006,-0.0456,0.0143,-0.0054,0.1078,-0.0008,0.0006,0.0,0.0,0.0321,0.0,6
-0.102,0.023,0.0631,0.0569,-0.012,0.0257,0.0,0.0008,0.0,0.0814,0.0,6
0.1199,0.1149,0.0808,0.0149,0.0093,0.0402,0.0006,0.3686,0.0867,0.1231,0.0,6
0.0343,0.0348,0.0206,0.0033,0.1578,0.0956,0.0,1.0,0.9567,0.0354,0.0,6
-0.2433,-0.0086,-0.0351,0.0071,0.0051,0.1209,0.0006,1.0,1.0,0.164,0.0,6
0.179,-0.0179,-0.1922,-0.0191,0.0708,0.0954,0.0,1.0,1.0,0.1755,0.0,6
0.5702,0.1124,-0.2473,-0.0133,0.145,-0.0251,0.0006,1.0,1.0,0.421,0.0,6
0.9048,0.2027,-0.1269,-0.1142,0.2708,0.0125,0.0001,1.0,1.0,0.6239,0.0,6
0.7327,-0.1041,-0.0502,-0.1667,0.0651,0.0863,0.0005,1.0,1.0,0.4945,0.0,6
0.8399,-0.4536,-0.1409,-0.2637,0.2359,0.0369,0.0001,1.0,1.0,0.6432,0.0,6
-0.8596,-0.7462,0.1011,-0.0002,0.4092,-0.1688,0.0005,1.0,1.0,0.7618,0.0,6
-1.0,0.3278,0.0373,0.2608,0.1841,-0.4475,0.0002,1.0,1.0,0.702,0.0,6
-1.0,0.6961,-0.1619,-0.024,0.0994,-0.1692,0.0005,1.0,1.0,0.8194,0.0,6
-0.76,0.0272,-0.1989,-0.3055,0.0214,0.1386,0.0002,1.0,1.0,0.524,0.0,6
-0.4397,-0.6177,-0.1636,-0.2446,-0.1156,0.1913,0.0005,1.0,1.0,0.5171,0.0,6
-0.3275,-0.6524,-0.0707,0.0413,-0.122,0.0528,0.0002,1.0,1.0,0.4889,0.0,6
-0.4436,-0.1807,0.0002,0.1864,-0.1114,0.0052,0.0004,1.0,1.0,0.3193,0.0,6
-0.4753,0.0178,0.0284,0.1807,-0.1871,0.0628,0.0001,1.0,1.0,0.3177,0.0,6
-0.2639,0.0132,-0.0565,0.1529,-0.2387,0.0399,0.0004,1.0,1.0,0.1801,0.0,6
0.2122,-0.0333,-0.0545,0.0093,-0.0289,-0.0372,0.0006,0.0001,0.0,0.1477,1.0,6
0.1173,0.0723,-0.012,0.0336,-0.0394,-0.0418,0.0,0.0004,0.0,0.0922,1.0,6
0.1229,0.1242,0.0112,0.0078,-0.0435,-0.025,0.0006,0.0001,0.0,0.1167,1.0,6
0.1001,0.0773,-0.0436,0.0218,-0.0253,0.0121,0.0,0.0004,0.0,0.0892,1.0,6
0.0736,0.0662,-0.0529,0.0107,-0.0408,0.0303,0.0006,0.0001,0.0,0.0748,1.0,6
0.1193,0.0386,-0.041,-0.0071,-0.0142,0.0281,0.0,0.0003,0.0,0.0879,1.0,6
0.1007,0.0087,-0.0483,0.0102,0.0267,0.027,0.0006,0.0001,0.0,0.0747,1.0,6
0.066,-0.001,-0.0423,0.0097,0.0024,0.0242,0.0,0.0004,0.0,0.0523,1.0,6
0.1093,0.0212,-0.0368,0.0015,0.0038,0.0134,0.0005,0.0001,0.0,0.0781,1.0,6
0.105,0.0242,-0.0086,0.0117,0.0223,0.0144,0.0,0.0004,0.0,0.0721,1.0,6
0.0612,0.0385,-0.024,0.0323,-0.013,0.0208,0.0006,0.0002,0.0,0.0508,1.0,6
0.202,0.0538,-0.0328,0.0124,-0.0049,0.0177,0.0,0.0004,0.0,0.1411,1.0,6
0.371,0.0484,-0.0119,0.0145,0.0847,-0.016,0.0005,0.0001,0.0,0.2495,1.0,6
0.5256,0.1147,-0.1116,0.0091,0.2137,-0.058,0.0,0.0988,0.0,0.3663,1.0,6
0.9862,0.1556,-0.1923,-0.0951,0.5113,0.0228,0.0005,0.558,0.8233,0.6778,1.0,6
0.2138,-0.0474,-0.1397,-0.0783,0.3898,0.0888,0.0,1.0,1.0,0.1732,1.0,6
0.6426,-0.0176,0.0356,-0.0504,0.1041,0.0603,0.0006,1.0,1.0,0.4292,1.0,6
0.3479,-0.1129,-0.0962,-0.1738,0.0011,0.0448,0.0002,1.0,1.0,0.2521,1.0,6
0.1589,-0.2531,-0.2984,-0.1446,0.2562,-0.1467,0.0005,1.0,1.0,0.2816,1.0,6
-0.7854,-0.2683,-0.192,0.017,0.3821,-0.1444,0.0002,1.0,1.0,0.5679,1.0,6
-1.0,-0.0173,-0.1091,-0.0469,0.2258,-0.3267,0.0005,1.0,1.0,0.6707,1.0,6
-0.9333,-0.0014,-0.0856,0.0296,0.2204,-0.2994,0.0002,1.0,1.0,0.6248,1.0,6
-0.7554,0.3178,-0.0729,0.0219,0.0522,-0.069,0.0005,1.0,1.0,0.5485,1.0,6
-0.5336,0.0982,-0.1229,-0.1357,-0.0784,0.1199,0.0002,1.0,1.0,0.3708,1.0,6
-0.504,-0.3232,-0.0942,-0.1364,-0.1021,0.1902,0.0004,1.0,1.0,0.4041,1.0,6
-0.65,-0.3748,-0.0572,0.0128,-0.1704,0.1664,0.0003,1.0,1.0,0.5017,1.0,6
-0.5837,-0.2161,-0.0663,0.0905,-0.2425,0.1274,0.0003,1.0,1.0,0.4173,1.0,6
-0.3495,-0.1374,-0.0767,0.1118,-0.2849,0.1098,0.0003,1.0,1.0,0.2555,1.0,6
-0.173,-0.0272,-0.0561,0.1288,-0.1415,0.0687,0.0002,1.0,1.0,0.1226,1.0,6
-0.1097,-0.0729,-0.0536,0.1041,-0.1298,0.0859,0.0003,1.0,1.0,0.0948,1.0,6
0.3224,0.0847,-0.0514,-0.0355,-0.0281,-0.0085,0.0007,0.0002,0.0,0.2248,2.0,6
0.2116,0.02,-0.0379,-0.0525,0.0598,-0.0163,0.0,0.0005,0.0,0.1439,2.0,6
0.0475,0.0801,0.0434,0.0169,-0.0127,0.014,0.0006,0.0002,0.0,0.0685,2.0,6
0.0603,0.128,0.0497,-0.0012,-0.027,0.0027,0.0,0.0005,0.0,0.1,2.0,6
0.025,0.0597,-0.0152,0.0141,-0.0075,0.0143,0.0006,0.0002,0.0,0.0444,2.0,6
-0.0069,0.0493,-0.0297,0.0204,-0.0173,0.027,0.0,0.0005,0.0,0.0386,2.0,6
0.052,0.0136,-0.0267,0.0075,-0.0117,0.0176,0.0005,0.0002,0.0,0.04,2.0,6
0.0535,0.0056,-0.0348,0.0169,-0.0107,0.0126,0.0,0.0004,0.0,0.0427,2.0,6
0.0735,0.0202,-0.028,0.01,-0.002,0.0169,0.0005,0.0002,0.0,0.0541,2.0,6
0.0585,0.0204,0.008,-0.0031,0.0053,0.0187,0.0,0.0004,0.0,0.0416,2.0,6
0.0818,0.0558,0.0125,0.0304,-0.0033,0.0279,0.0005,0.0002,0.0,0.0666,2.0,6
0.1292,0.1273,0.0124,0.0237,-0.0098,0.0358,0.0001,0.0004,0.0,0.1212,2.0,6
0.2987,0.1281,0.0322,0.0375,0.053,0.0098,0.0005,0.0002,0.0,0.2177,2.0,6
0.4511,0.2053,-0.0541,0.0528,0.1374,-0.0284,0.0001,0.0007,0.0,0.3323,2.0,6
0.9862,0.3268,-0.2071,-0.0728,0.3262,0.066,0.0004,1.0,0.4533,0.7062,2.0,6
0.8047,0.0577,-0.0668,-0.0944,0.4705,0.1328,0.0001,1.0,1.0,0.5397,2.0,6
0.9862,0.009,-0.0657,-0.105,0.3503,0.0752,0.0004,1.0,1.0,0.6589,2.0,6
0.3402,-0.1689,-0.2516,-0.1846,0.0417,0.0422,0.086,1.0,1.0,0.3038,2.0,6
0.0953,-0.4421,-0.4371,-0.1645,0.3941,-0.0655,0.086,1.0,1.0,0.4193,2.0,6
-1.0,-0.3934,-0.1941,0.1455,0.3119,-0.1326,0.0004,1.0,1.0,0.728,2.0,6
-0.9447,0.2635,-0.3285,-0.0701,0.2003,-0.4396,0.0004,1.0,1.0,0.6895,2.0,6
-1.0,0.0399,-0.2108,0.0029,0.2591,-0.1909,0.0004,1.0,1.0,0.6818,2.0,6
-0.6775,0.2462,-0.0632,-0.0987,0.0081,-0.0188,0.0004,1.0,1.0,0.4824,2.0,6
-0.3359,-0.2338,-0.1597,-0.147,-0.0285,0.0712,0.0004,1.0,1.0,0.2929,2.0,6
-0.4083,-0.3829,-0.1215,-0.1008,-0.0568,0.0896,0.0003,1.0,1.0,0.3819,2.0,6
-0.4637,-0.4033,-0.1136,0.0122,-0.1462,0.0472,0.0003,1.0,1.0,0.4166,2.0,6
-0.4768,-0.1441,-0.0839,0.1282,-0.2259,0.0514,0.0001,1.0,1.0,0.3367,2.0,6
-0.4667,-0.0057,-0.0578,0.0632,-0.2764,0.1202,0.0004,1.0,1.0,0.3135,2.0,6
-0.311,-0.1279,-0.0607,0.0389,-0.2867,0.1347,0.0,1.0,1.0,0.2278,2.0,6
-0.2644,-0.1245,-0.045,0.1296,-0.3234,0.0919,0.0005,1.0,0.3433,0.1971,2.0,6
0.3518,0.1238,-0.0403,-0.023,0.0456,-0.0413,0.0006,0.0001,0.0,0.2501,3.0,6
0.2004,0.0715,-0.0368,0.0398,0.0191,0.0087,0.0001,0.0004,0.0,0.144,3.0,6
0.1898,0.1076,-0.0917,0.0318,-0.0547,0.0189,0.0006,0.0001,0.0,0.1578,3.0,6
0.2256,0.0657,-0.0958,-0.0143,-0.0076,-0.0037,0.0,0.0004,0.0,0.1692,3.0,6
0.0696,0.0264,-0.0412,0.0058,0.0225,-0.0102,0.0005,0.0002,0.0,0.0567,3.0,6
0.0223,0.1168,-0.0045,0.0536,-0.0541,0.0212,0.0001,0.0003,0.0,0.0793,3.0,6
0.1072,0.1159,-0.0215,0.0018,-0.0348,0.0147,0.0004,0.0002,0.0,0.1062,3.0,6
0.0223,0.0185,-0.044,0.0192,-0.0041,0.0258,0.0001,0.0003,0.0,0.0351,3.0,6
0.0474,0.0681,-0.0486,0.0442,-0.0646,0.0252,0.0004,0.0002,0.0,0.0641,3.0,6
0.1261,0.0749,-0.0475,0.0313,-0.0217,0.0329,0.0002,0.0003,0.0,0.1028,3.0,6
0.0983,0.0742,-0.0634,-0.0021,-0.0103,0.0306,0.0004,0.0002,0.0,0.0923,3.0,6
0.165,0.0679,-0.0015,0.0305,0.0214,0.0315,0.0002,0.0003,0.0,0.119,3.0,6
0.2796,0.1591,-0.0213,0.0586,0.0774,0.0332,0.0003,0.0004,0.0,0.2149,3.0,6
0.4683,0.196,-0.1231,-0.0091,0.2526,0.0222,0.0003,0.579,0.0,0.3482,3.0,6
0.7089,0.1664,-0.1791,-0.0719,0.4402,0.1017,0.0002,1.0,0.8,0.4999,3.0,6
0.3997,-0.0076,-0.1467,-0.0933,0.1248,0.1561,0.0003,1.0,1.0,0.2839,3.0,6
0.9862,-0.222,-0.2942,-0.1441,0.1406,0.0451,0.0003,1.0,1.0,0.7019,3.0,6
0.5831,-0.4031,-0.4055,-0.1944,0.2231,-0.0961,0.0005,1.0,1.0,0.5445,3.0,6
-0.5984,-0.3959,-0.0932,-0.0516,0.376,-0.049,0.0003,1.0,1.0,0.4824,3.0,6
-0.7908,0.1884,-0.0008,-0.0327,0.1728,-0.222,0.0005,1.0,1.0,0.5419,3.0,6
-1.0,-0.0054,-0.2086,-0.0626,0.3492,-0.3575,0.0002,1.0,1.0,0.681,3.0,6
-1.0,0.3509,0.0115,0.0472,0.0738,-0.0969,0.0006,1.0,1.0,0.7066,3.0,6
-0.6691,0.1374,-0.0811,-0.1029,-0.0249,-0.0006,0.0002,1.0,1.0,0.4585,3.0,6
-0.4492,-0.0721,-0.1509,-0.0633,-0.0961,0.1003,0.0006,1.0,1.0,0.3196,3.0,6
-0.3961,-0.1962,-0.1784,-0.1122,-0.1477,0.1288,0.0001,1.0,1.0,0.3178,3.0,6
-0.3553,-0.3747,-0.1494,-0.043,-0.1964,0.1142,0.0005,1.0,1.0,0.3584,3.0,6
-0.4017,-0.242,-0.0074,0.0821,-0.2443,0.1283,0.0,1.0,1.0,0.3127,3.0,6
-0.2917,-0.0767,-0.0772,0.1346,-0.3259,0.0398,0.0006,1.0,0.4933,0.2076,3.0,6
-0.0859,0.0201,-0.1187,0.1023,-0.2938,-0.0316,0.0,0.6905,0.0,0.0986,3.0,6
-0.0622,0.0068,-0.0596,0.1371,-0.2672,0.0055,0.0006,0.3862,0.0,0.0576,3.0,6
-0.0859,0.0201,-0.1187,0.1023,-0.2938,-0.0316,0.0,0.6905,0.0,0.0986,4.0,6
-0.0622,0.0068,-0.0596,0.1371,-0.2672,0.0055,0.0006,0.3862,0.0,0.0576,4.0,6
0.2634,0.0798,-0.1248,0.0248,0.0214,-0.0348,0.0005,0.0002,0.0,0.2015,4.0,6
0.1898,0.091,-0.1075,0.0231,-0.0022,-0.0079,0.0001,0.0003,0.0,0.1576,4.0,6
0.1509,0.126,-0.0529,-0.0244,0.0097,-0.0289,0.0004,0.0002,0.0,0.1357,4.0,6
0.0343,0.1076,-0.0008,0.0065,0.0041,-0.0101,0.0002,0.0003,0.0,0.0753,4.0,6
0.0646,0.1465,-0.0137,0.0317,-0.0411,0.0126,0.0004,0.0002,0.0,0.1072,4.0,6
0.0702,0.1384,-0.0368,0.0052,-0.0144,0.0173,0.0002,0.0003,0.0,0.1063,4.0,6
-0.0297,0.0949,-0.0289,0.0214,-0.041,0.0514,0.0003,0.0002,0.0,0.069,4.0,6
0.0584,0.1081,-0.0452,0.0142,-0.0599,0.0388,0.0003,0.0003,0.0,0.0873,4.0,6
0.1505,0.1133,-0.0009,0.0275,0.0012,0.0378,0.0002,0.0003,0.0,0.1256,4.0,6
0.0304,0.1347,-0.0297,0.0666,0.0325,0.0765,0.0004,0.0002,0.0,0.0942,4.0,6
0.3267,0.1873,-0.0206,0.0646,-0.0084,0.0739,0.0002,0.0003,0.0,0.2514,4.0,6
0.7606,0.1714,-0.1415,-0.0053,0.2574,0.0492,0.0004,0.0007,0.5167,0.5283,4.0,6
0.9332,0.1476,-0.2204,-0.1148,0.4124,0.0998,0.0001,0.0037,1.0,0.6468,4.0,6
0.7147,-0.006,-0.2217,-0.1851,0.4511,0.0665,0.0005,1.0,1.0,0.4989,4.0,6
0.5744,-0.1999,-0.061,-0.235,0.0916,0.0907,0.0002,1.0,1.0,0.4075,4.0,6
0.5104,-0.478,-0.3063,-0.178,0.129,-0.0496,0.0006,1.0,1.0,0.5089,4.0,6
-0.4673,-0.3582,-0.1813,-0.07,0.2804,-0.1342,0.0002,1.0,1.0,0.4107,4.0,6
-0.9963,-0.2423,-0.2252,-0.0334,0.2218,-0.245,0.0006,1.0,1.0,0.6999,4.0,6
-1.0,-0.0435,-0.2968,0.009,0.2743,-0.4364,0.0002,1.0,1.0,0.696,4.0,6
-1.0,0.3649,-0.0956,0.0422,0.157,-0.2376,0.0007,1.0,1.0,0.7125,4.0,6
-0.4777,0.2691,-0.126,-0.1367,-0.0066,-0.0513,0.0002,1.0,1.0,0.375,4.0,6
-0.3384,-0.0445,-0.1006,-0.1601,-0.0431,0.115,0.0007,1.0,1.0,0.2372,4.0,6
-0.3735,-0.3328,-0.0684,-0.1323,-0.133,0.1369,0.0001,1.0,1.0,0.3366,4.0,6
-0.3684,-0.3404,-0.1005,0.001,-0.237,0.13,0.0005,1.0,1.0,0.341,4.0,6
-0.1599,-0.1716,-0.1205,0.0484,-0.177,0.0993,0.0,1.0,1.0,0.1758,4.0,6
-0.3111,-0.1249,0.0057,0.0356,-0.1552,0.1317,0.0006,1.0,1.0,0.2236,4.0,6
-0.4238,-0.1204,0.0832,0.1058,-0.2568,0.1031,0.0,1.0,0.2867,0.2989,4.0,6
-0.3369,-0.0286,0.0563,0.1577,-0.3466,0.0088,0.0006,0.7225,0.0,0.2285,4.0,6
0.1671,0.0687,-0.0088,-0.002,0.0349,0.0003,0.0002,0.0004,0.0,0.1206,5.0,6
0.1063,0.0715,0.0075,-0.0129,-0.0077,-0.0189,0.0004,0.0003,0.0,0.0856,5.0,6
0.064,0.0919,0.0065,0.0157,-0.0325,-0.001,0.0001,0.0004,0.0,0.0748,5.0,6
0.0414,0.0793,-0.0289,0.0246,-0.0493,0.0016,0.0005,0.0002,0.0,0.0627,5.0,6
0.0056,0.0993,-0.0318,0.0318,-0.0503,0.0238,0.0,0.0004,0.0,0.0696,5.0,6
0.04,0.0659,-0.0604,0.0033,-0.0521,0.0338,0.0005,0.0002,0.0,0.0653,5.0,6
0.0621,0.0407,-0.0574,0.0144,-0.0086,0.0148,0.0,0.0004,0.0,0.0626,5.0,6
-0.0044,0.0811,-0.0441,0.0169,-0.0412,0.0344,0.0005,0.0001,0.0,0.0616,5.0,6
0.1177,0.0297,-0.0932,-0.0067,-0.0404,0.0343,0.0,0.0005,0.0,0.102,5.0,6
0.1176,0.0501,-0.07,0.0185,0.0328,0.015,0.0006,0.0002,0.0,0.0971,5.0,6
0.0479,0.0998,-0.0258,0.0234,-0.0113,0.0317,0.0,0.0003,0.0,0.0758,5.0,6
0.1906,0.1014,-0.0488,0.0261,-0.0241,0.0543,0.0006,0.0001,0.0,0.1475,5.0,6
0.2859,0.1219,-0.1027,0.0282,-0.0022,0.0393,0.0,0.0004,0.0,0.2182,5.0,6
0.6271,0.1619,-0.1577,-0.009,0.0391,-0.0091,0.0006,0.0002,0.0,0.4444,5.0,6
0.8442,0.1509,-0.1481,-0.0986,0.1477,0.068,0.0,0.7941,0.0,0.5802,5.0,6
0.9862,0.1021,-0.2192,-0.104,0.4221,0.0836,0.0006,0.7003,1.0,0.6769,5.0,6
0.4606,0.0197,-0.2961,-0.1544,0.4268,0.1594,0.0,1.0,1.0,0.3653,5.0,6
-0.0078,-0.101,-0.2122,-0.2664,0.0845,-0.0482,0.0006,1.0,1.0,0.1568,5.0,6
-0.2217,-0.2053,-0.1296,-0.1753,0.2897,0.0137,0.0001,1.0,1.0,0.2192,5.0,6
-0.6717,-0.1898,-0.1415,-0.1089,0.4196,-0.2938,0.0006,1.0,1.0,0.4748,5.0,6
-1.0,-0.0681,0.0601,0.0222,0.1633,-0.2048,0.0002,1.0,1.0,0.6694,5.0,6
-0.8439,0.2242,-0.0305,0.1442,0.1468,-0.1733,0.0006,1.0,1.0,0.5824,5.0,6
-0.6355,0.5162,-0.106,-0.0608,0.0168,-0.0049,0.0002,1.0,1.0,0.5504,5.0,6
-0.4457,-0.08,-0.0879,-0.2569,-0.0947,0.1331,0.0006,1.0,1.0,0.3075,5.0,6
-0.1829,-0.5115,-0.0832,-0.1249,-0.0732,0.1095,0.0002,1.0,1.0,0.3664,5.0,6
-0.2908,-0.3884,-0.0457,0.0243,-0.0732,0.0474,0.0006,1.0,1.0,0.3249,5.0,6
-0.3673,-0.2322,-0.0732,0.085,-0.1699,0.0508,0.0002,1.0,1.0,0.2938,5.0,6
-0.4729,-0.1237,-0.0034,0.1412,-0.2694,0.1459,0.0005,1.0,1.0,0.3259,5.0,6
-0.5298,-0.0472,-0.0213,0.1909,-0.3926,0.1689,0.0,1.0,0.5667,0.3549,5.0,6
-0.3867,0.0195,-0.1248,0.1445,-0.4389,0.0366,0.0005,0.7658,0.0,0.2712,5.0,6
0.2481,0.0847,-0.0895,-0.0306,0.0067,-0.0054,0.0006,0.0002,0.0,0.1846,6.0,6
0.1547,0.06,-0.0397,0.0009,-0.0037,-0.0364,0.0,0.0005,0.0,0.1137,6.0,6
0.067,0.1122,-0.0195,0.0429,-0.0336,-0.0333,0.0006,0.0002,0.0,0.0881,6.0,6
0.0573,0.1706,-0.0373,0.0529,-0.0546,-0.0014,0.0,0.0005,0.0,0.1225,6.0,6
0.0433,0.1225,-0.0557,0.0152,-0.0633,0.0218,0.0006,0.0001,0.0,0.0943,6.0,6
0.0294,0.0297,-0.0801,0.0536,-0.0597,0.0277,0.0,0.0005,0.0,0.0603,6.0,6
0.0171,0.1121,-0.0803,0.068,-0.0348,0.0241,0.0006,0.0001,0.0,0.0926,6.0,6
0.0079,0.0818,-0.0756,0.0053,-0.0346,0.0391,0.0,0.0005,0.0,0.0745,6.0,6
0.028,0.0412,-0.0787,0.0321,-0.0122,0.0521,0.0006,0.0001,0.0,0.0621,6.0,6
0.0463,0.0787,-0.0765,0.0385,0.0057,0.0273,0.0,0.0005,0.0,0.0794,6.0,6
0.0584,0.067,-0.0851,0.0015,-0.0015,0.0221,0.0006,0.0002,0.0,0.082,6.0,6
0.0742,0.0566,-0.067,0.0116,-0.0102,0.0294,0.0,0.0006,0.0,0.0766,6.0,6
0.1813,0.0732,-0.0702,0.0517,-0.0056,-0.0099,0.0006,0.0003,0.0,0.1385,6.0,6
0.2095,0.1634,-0.1224,0.0597,0.0308,-0.0415,0.0,0.0008,0.0,0.195,6.0,6
0.47,0.1883,-0.1944,-0.0041,0.0938,-0.0275,0.0006,0.9522,0.0,0.3616,6.0,6
0.7595,0.1144,-0.2195,-0.0159,0.3369,0.0355,0.0,0.9232,0.9467,0.5326,6.0,6
0.8734,0.1941,-0.3311,-0.0862,0.6726,0.0985,0.0006,1.0,1.0,0.636,6.0,6
0.3323,0.0956,-0.238,-0.0929,0.3533,0.1158,0.0,1.0,1.0,0.2798,6.0,6
0.3506,0.0087,-0.1021,-0.2344,0.0974,0.0987,0.4104,1.0,1.0,0.2435,6.0,6
0.3272,-0.1015,-0.3268,-0.1855,0.2268,0.0244,0.6336,1.0,1.0,0.3156,6.0,6
-0.8646,-0.1971,-0.0339,-0.2045,0.2541,-0.0838,0.4933,1.0,1.0,0.5916,6.0,6
-1.0,0.0889,0.02,-0.011,0.1806,-0.1658,0.4022,1.0,1.0,0.6694,6.0,6
-0.8717,0.0748,-0.0931,-0.0115,0.1121,-0.2396,0.392,1.0,1.0,0.5866,6.0,6
-0.7604,0.2289,-0.0908,0.0575,0.0371,-0.0774,0.3875,1.0,1.0,0.5328,6.0,6
-0.4448,0.1353,-0.1375,-0.0787,-0.0572,0.0673,0.3726,1.0,1.0,0.3232,6.0,6
-0.3258,-0.1874,-0.1833,-0.1764,-0.0646,0.1274,0.3378,1.0,1.0,0.2788,6.0,6
-0.3202,-0.3963,-0.1223,-0.0926,-0.1068,0.1104,0.0565,1.0,1.0,0.3493,6.0,6
-0.4155,-0.3282,-0.059,0.0695,-0.2117,0.1031,0.0003,1.0,1.0,0.3552,6.0,6
-0.1559,-0.0827,-0.0577,0.1279,-0.2146,0.0301,0.0002,1.0,1.0,0.1238,6.0,6
-0.2828,-0.0085,-0.0401,0.1081,-0.1379,0.0321,0.0004,1.0,1.0,0.1905,6.0,6
0.0855,0.075,-0.07,-0.0046,-0.0044,0.0027,0.0,0.0005,0.0,0.089,7.0,6
0.0765,0.0617,-0.0702,0.0017,-0.0009,0.0007,0.0005,0.0003,0.0,0.0806,7.0,6
0.0778,0.074,-0.0743,0.0013,-0.0019,0.0002,0.0,0.0004,0.0,0.087,7.0,6
0.0856,0.0715,-0.0683,-0.0075,-0.0128,0.0034,0.0005,0.0002,0.0,0.0872,7.0,6
0.0945,0.0561,-0.0825,0.0067,-0.0,-0.0007,0.0,0.0004,0.0,0.0916,7.0,6
0.0701,0.0728,-0.0716,0.0042,-0.0033,0.0005,0.0005,0.0002,0.0,0.0826,7.0,6
0.0968,0.0637,-0.081,-0.0006,-0.0087,0.0025,0.0,0.0004,0.0,0.0942,7.0,6
0.1001,0.0695,-0.079,0.0076,0.0027,-0.006,0.0005,0.0001,0.0,0.0968,7.0,6
0.0707,0.097,-0.0685,0.0053,-0.0001,0.0,0.0,0.0003,0.0,0.0921,7.0,6
0.0762,0.1092,-0.0544,0.0078,-0.0305,0.0181,0.0004,0.0001,0.0,0.0959,7.0,6
0.139,0.1181,-0.0772,0.0068,-0.0098,0.0118,0.0001,0.0003,0.0,0.1321,7.0,6
0.1381,0.0906,-0.0961,-0.0002,0.0281,-0.002,0.0004,0.0002,0.0,0.1274,7.0,6
0.2636,0.1163,-0.0762,0.0205,0.02,-0.0424,0.0002,0.0005,0.0,0.1987,7.0,6
0.6921,0.1944,-0.1393,-0.0321,0.0947,-0.0948,0.0003,0.5987,0.54,0.4882,7.0,6
0.9862,0.2466,-0.1296,-0.1018,0.4901,-0.0327,0.0003,1.0,1.0,0.6832,7.0,6
0.2188,0.1423,-0.2046,-0.1298,0.7164,0.0842,0.021,1.0,1.0,0.2211,7.0,6
0.6535,0.1668,-0.1345,-0.1075,0.0701,0.0615,0.2872,1.0,1.0,0.4585,7.0,6
0.3657,-0.0042,-0.3085,-0.353,0.2955,-0.0323,0.5057,1.0,1.0,0.319,7.0,6
-0.4949,-0.1819,-0.0773,-0.1528,0.181,0.1106,0.6381,1.0,1.0,0.3553,7.0,6
-0.7259,-0.1393,-0.143,-0.0788,0.1828,-0.2644,0.6862,1.0,1.0,0.5019,7.0,6
-1.0,-0.1335,-0.1774,-0.0041,0.219,-0.3421,0.5483,1.0,1.0,0.6829,7.0,6
-0.9731,0.1139,-0.1678,0.132,0.0362,-0.1712,0.5214,1.0,1.0,0.6627,7.0,6
-0.5284,0.299,-0.1813,-0.0285,-0.0547,-0.0107,0.3941,1.0,1.0,0.4224,7.0,6
-0.4342,-0.053,-0.1612,-0.1424,-0.091,0.1387,0.3486,1.0,1.0,0.3108,7.0,6
-0.5644,-0.3257,-0.0811,-0.0799,-0.1746,0.203,0.3329,1.0,1.0,0.4378,7.0,6
-0.7322,-0.3459,-0.0622,0.0162,-0.3913,0.2062,0.0007,1.0,1.0,0.5414,7.0,6
-0.4293,-0.2324,-0.1548,0.0867,-0.5453,0.1907,0.0006,1.0,1.0,0.3414,7.0,6
-0.3268,-0.2148,-0.1514,0.0858,-0.53,0.1685,0.0,0.964,0.0,0.2796,7.0,6
-0.1293,-0.1368,-0.1773,0.1051,-0.4901,0.0216,0.0006,0.2453,0.0,0.1724,7.0,6
0.1098,-0.0203,-0.3057,0.098,-0.44,-0.0132,0.0,0.0223,0.0,0.217,7.0,6
0.2145,0.0943,-0.0317,0.0116,0.0057,-0.1,0.0002,0.0003,0.0,0.1576,8.0,6
0.1447,0.1031,0.0225,-0.0155,-0.0061,-0.0707,0.0003,0.0002,0.0,0.1194,8.0,6
0.1195,0.1047,0.012,0.0183,-0.0092,-0.0272,0.0002,0.0003,0.0,0.1062,8.0,6
0.0814,0.0815,0.0037,0.0099,-0.023,-0.002,0.0003,0.0002,0.0,0.0768,8.0,6
0.0878,0.0423,0.0017,0.0106,-0.01,0.0162,0.0003,0.0002,0.0,0.065,8.0,6
0.0641,0.0273,-0.0091,0.021,0.0066,0.0188,0.0002,0.0002,0.0,0.0468,8.0,6
0.0293,0.0259,0.0164,0.0272,-0.0089,0.0208,0.0003,0.0002,0.0,0.0283,8.0,6
0.0609,0.0334,-0.0054,0.0221,-0.0022,0.026,0.0001,0.0003,0.0,0.0465,8.0,6
0.0311,0.0125,-0.0035,0.0136,0.0012,0.0221,0.0004,0.0002,0.0,0.0225,8.0,6
0.0413,0.0173,0.0185,0.053,-0.0188,0.02,0.0001,0.0003,0.0,0.0323,8.0,6
0.0619,0.1183,0.058,0.0692,-0.0124,0.0137,0.0005,0.0002,0.0,0.0971,8.0,6
0.1073,0.1856,0.051,0.0775,-0.0276,0.0368,0.0,0.0003,0.0,0.1469,8.0,6
0.1594,0.1517,0.1298,0.1245,-0.0262,0.0342,0.0005,0.0003,0.0,0.1703,8.0,6
0.4175,0.2324,-0.0895,0.1402,0.0717,0.0761,0.0,0.6796,0.0,0.3241,8.0,6
0.4528,0.1569,-0.1984,-0.0271,0.2963,0.1209,0.0005,0.8573,0.93,0.3458,8.0,6
0.7405,0.1624,-0.372,-0.1017,0.4641,0.1762,0.0,1.0,1.0,0.563,8.0,6
0.1666,-0.0775,-0.1358,-0.1637,0.1263,0.1713,0.0006,1.0,1.0,0.1523,8.0,6
0.9862,-0.258,-0.4769,-0.1798,-0.0875,0.1404,0.2449,1.0,1.0,0.7503,8.0,6
0.8114,-0.4024,-0.4938,-0.1525,0.3305,0.0306,0.2261,1.0,1.0,0.6877,8.0,6
-0.2483,0.0146,-0.0563,-0.1051,0.2348,0.169,0.3335,1.0,1.0,0.17,8.0,6
-0.6993,-0.4257,-0.1402,-0.3348,0.5188,-0.4147,0.3134,1.0,1.0,0.5538,8.0,6
-1.0,-0.1451,0.2208,0.1319,0.4961,-0.3848,0.0844,1.0,1.0,0.6895,8.0,6
-1.0,0.6961,0.0934,0.1917,0.0042,-0.2187,0.2431,1.0,1.0,0.8147,8.0,6
-0.4004,0.4937,-0.2037,-0.1193,-0.0718,0.1179,0.2868,1.0,1.0,0.445,8.0,6
-0.3188,-0.2678,-0.2101,-0.3156,-0.0583,0.2449,0.3727,1.0,1.0,0.3109,8.0,6
-0.4247,-0.7363,-0.148,-0.2097,-0.123,0.1336,0.3808,1.0,1.0,0.5752,8.0,6
-0.3063,-0.5936,-0.1937,0.0741,-0.1939,0.092,0.34,1.0,1.0,0.4636,8.0,6
-0.217,-0.2051,-0.1425,0.1642,-0.1759,0.0379,0.1132,1.0,1.0,0.2206,8.0,6
-0.2508,-0.1208,0.0139,0.1132,-0.2227,0.0372,0.0006,1.0,0.99,0.1858,8.0,6
-0.2444,-0.095,0.0423,0.1386,-0.2655,0.0431,0.0,0.9866,0.0,0.1771,8.0,6
0.0985,0.0237,-0.0311,0.0048,-0.0166,0.0288,0.0006,0.0001,0.0,0.0707,9.0,6
0.0292,0.0121,-0.0306,0.0161,0.0173,0.0177,0.0,0.0005,0.0,0.0293,9.0,6
-0.0024,0.0463,0.0019,0.0106,-0.0502,0.035,0.0006,0.0001,0.0,0.0309,9.0,6
0.0885,-0.0134,-0.0456,-0.0009,-0.0251,0.0303,0.0,0.0005,0.0,0.067,9.0,6
0.0595,0.0081,-0.0593,0.0064,0.0276,0.0154,0.0006,0.0001,0.0,0.0562,9.0,6
-0.0045,0.0034,-0.0204,-0.0006,0.007,0.0212,0.0,0.0005,0.0,0.0141,9.0,6
0.0479,0.033,-0.0074,-0.0141,-0.0102,0.0158,0.0006,0.0001,0.0,0.0391,9.0,6
0.0665,0.0123,-0.0308,-0.0081,0.0097,0.0051,0.0,0.0005,0.0,0.0496,9.0,6
0.0493,0.0274,-0.0298,0.0046,0.005,0.009,0.0006,0.0001,0.0,0.0426,9.0,6
0.0785,0.0508,-0.0123,-0.0099,-0.0168,0.0178,0.0,0.0005,0.0,0.0629,9.0,6
0.1072,0.0292,-0.0289,0.0025,0.0016,0.0052,0.0006,0.0001,0.0,0.0765,9.0,6
0.0752,0.0528,-0.0128,0.0518,0.0112,0.0055,0.0,0.0005,0.0,0.0618,9.0,6
0.1202,0.0851,-0.0126,0.0561,-0.0102,0.0159,0.0005,0.0001,0.0,0.0986,9.0,6
0.3364,0.1125,0.0291,0.0245,0.1088,-0.0493,0.0,0.0617,0.0,0.2373,9.0,6
0.3225,0.0701,-0.1706,0.0078,0.4199,0.0445,0.0005,0.8953,0.4067,0.2477,9.0,6
0.0099,0.0971,-0.2292,-0.0813,0.3388,0.0556,0.0,1.0,1.0,0.1661,9.0,6
0.3169,0.0886,-0.0013,-0.0788,0.093,0.0483,0.0007,1.0,1.0,0.2194,9.0,6
0.6578,0.1251,-0.0313,-0.0639,0.234,0.0172,0.0001,1.0,1.0,0.4469,9.0,6
0.6206,0.127,-0.0348,-0.0793,0.2763,0.0904,0.0006,1.0,1.0,0.423,9.0,6
0.3812,0.0073,-0.028,-0.1477,0.0098,0.1304,0.0301,1.0,1.0,0.2549,9.0,6
0.3652,-0.2875,-0.2536,-0.3049,0.105,-0.02,0.2398,1.0,1.0,0.353,9.0,6
-0.6459,-0.4909,-0.0275,-0.0976,0.1911,0.0013,0.218,1.0,1.0,0.5411,9.0,6
-0.9818,-0.1819,-0.0596,-0.0182,0.1979,-0.2591,0.0005,1.0,1.0,0.6669,9.0,6
-1.0,-0.1423,-0.152,0.1146,0.3115,-0.4136,0.0003,1.0,1.0,0.681,9.0,6
-0.9106,0.3851,-0.0859,0.0957,0.0476,-0.2042,0.0005,1.0,1.0,0.6616,9.0,6
-0.4117,0.3014,-0.1021,-0.0833,-0.0094,0.0004,0.0004,1.0,1.0,0.3469,9.0,6
-0.3636,-0.0462,-0.076,-0.1948,-0.0495,0.1365,0.0004,1.0,1.0,0.2496,9.0,6
-0.4341,-0.4127,-0.0693,-0.1022,-0.1169,0.1543,0.0004,1.0,1.0,0.4019,9.0,6
-0.6381,-0.3233,-0.0504,0.0605,-0.2168,0.1923,0.0004,1.0,1.0,0.478,9.0,6
-0.5124,-0.2034,-0.1017,0.1102,-0.2413,0.1572,0.0004,1.0,1.0,0.3738,9.0,6
0.0704,0.064,-0.0523,0.0003,0.0043,-0.0036,0.0003,0.0002,0.0,0.0724,10.0,6
0.0249,0.0726,-0.044,0.0111,-0.0278,0.0005,0.0002,0.0003,0.0,0.059,10.0,6
0.0841,0.0615,-0.0678,-0.0016,-0.0211,-0.0039,0.0004,0.0002,0.0,0.0829,10.0,6
0.0403,0.0644,-0.0547,0.0131,-0.0049,-0.0092,0.0001,0.0003,0.0,0.0624,10.0,6
0.0315,0.0643,-0.0536,0.009,-0.0259,-0.0025,0.0004,0.0002,0.0,0.0596,10.0,6
0.0614,0.0706,-0.0619,0.0033,-0.0162,-0.0025,0.0001,0.0004,0.0,0.0748,10.0,6
0.0316,0.0667,-0.066,0.0066,-0.0056,0.0008,0.0005,0.0002,0.0,0.066,10.0,6
0.0494,0.0645,-0.0689,0.0076,-0.0122,0.0046,0.0,0.0004,0.0,0.071,10.0,6
0.0497,0.0718,-0.0615,0.0111,-0.0115,0.012,0.0005,0.0001,0.0,0.0712,10.0,6
0.0673,0.0694,-0.0665,0.0117,-0.0002,0.0085,0.0,0.0004,0.0,0.0782,10.0,6
0.0591,0.0867,-0.0638,0.0136,-0.001,0.01,0.0005,0.0001,0.0,0.0819,10.0,6
0.0899,0.1102,-0.0403,0.0319,0.0135,0.0141,0.0,0.0003,0.0,0.0985,10.0,6
0.0979,0.1585,-0.0331,0.0372,0.0492,0.0268,0.0005,0.0002,0.0,0.1262,10.0,6
0.2597,0.191,-0.0179,0.0172,0.1151,0.0295,0.0,0.1816,0.0,0.2152,10.0,6
0.3773,0.2376,-0.2551,0.0042,0.5486,0.1108,0.0006,1.0,0.1867,0.3425,10.0,6
-0.0561,0.2696,-0.2408,-0.0903,0.2227,0.1366,0.0,1.0,1.0,0.2439,10.0,6
0.9807,0.0818,-0.1179,-0.136,0.197,0.0278,0.0005,1.0,1.0,0.6608,10.0,6
0.9862,0.2283,-0.1443,-0.0868,0.3575,0.062,0.0,1.0,1.0,0.6817,10.0,6
0.4144,0.2389,-0.0875,-0.1435,0.2526,0.1512,0.0005,1.0,1.0,0.3242,10.0,6
0.6278,-0.2297,-0.4378,-0.3609,0.1845,0.0849,0.0001,1.0,1.0,0.5327,10.0,6
-0.8591,-0.7309,-0.1432,-0.2858,0.3371,-0.0882,0.0005,1.0,1.0,0.758,10.0,6
-1.0,0.0279,-0.2421,0.0285,0.3234,-0.3047,0.0001,1.0,1.0,0.6862,10.0,6
-1.0,0.0804,-0.1264,-0.0136,0.2773,-0.4164,0.0005,1.0,1.0,0.6741,10.0,6
-0.9582,0.3795,-0.0779,-0.006,0.075,-0.1605,0.0001,1.0,1.0,0.6891,10.0,6
-0.5389,0.1436,-0.1467,-0.1431,-0.0712,0.0906,0.0005,1.0,1.0,0.3845,10.0,6
-0.3796,-0.2622,-0.2206,-0.1936,-0.1151,0.1817,0.0001,1.0,1.0,0.3409,10.0,6
-0.4452,-0.528,-0.1778,-0.1361,-0.1612,0.1623,0.0005,1.0,1.0,0.4754,10.0,6
-0.4696,-0.4932,-0.1406,0.0716,-0.2554,0.1387,0.0001,1.0,1.0,0.4636,10.0,6
-0.3336,-0.1546,-0.1082,0.1391,-0.3378,0.1119,0.0005,1.0,1.0,0.2555,10.0,6
-0.2421,-0.0717,-0.0558,0.0633,-0.2819,0.1444,0.0,1.0,1.0,0.1724,10.0,6
0.1,0.0402,-0.0638,0.0089,0.027,0.0089,0.0,0.0003,0.0,0.0835,11.0,6
0.0543,0.0766,-0.0419,-0.0055,0.0108,0.0189,0.0005,0.0001,0.0,0.0686,11.0,6
0.0952,0.0252,-0.0538,-0.0138,0.003,0.0123,0.0,0.0003,0.0,0.0748,11.0,6
0.0816,0.0263,-0.0571,0.0139,0.0161,-0.0004,0.0005,0.0001,0.0,0.0686,11.0,6
0.0508,0.0588,-0.0339,0.0035,0.0003,0.0091,0.0,0.0003,0.0,0.0565,11.0,6
0.0984,0.0296,-0.0524,-0.0094,-0.0023,0.0014,0.0004,0.0002,0.0,0.0769,11.0,6
0.0736,0.0417,-0.0482,0.0061,0.0103,-0.0097,0.0,0.0003,0.0,0.0649,11.0,6
0.0562,0.0733,-0.0236,0.0075,-0.0108,-0.0027,0.0004,0.0002,0.0,0.0635,11.0,6
0.0805,0.0646,-0.0394,0.0016,-0.0109,0.0026,0.0001,0.0003,0.0,0.0736,11.0,6
0.0703,0.0722,-0.0296,0.0116,-0.0088,0.0013,0.0004,0.0002,0.0,0.07,11.0,6
0.0733,0.0715,-0.0351,0.0183,-0.0248,0.0045,0.0002,0.0002,0.0,0.0721,11.0,6
0.1315,0.0798,-0.0043,0.0327,-0.0036,-0.0062,0.0003,0.0002,0.0,0.1026,11.0,6
0.1194,0.0942,-0.0021,0.0785,0.0371,0.0185,0.0002,0.0004,0.0,0.1014,11.0,6
0.3294,0.1396,-0.061,0.0519,0.1572,0.0098,0.0003,0.4602,0.0,0.2419,11.0,6
0.5089,0.201,-0.2548,0.0464,0.2413,0.0082,0.0003,1.0,1.0,0.4024,11.0,6
0.5592,0.2846,-0.128,-0.0517,0.2982,0.0816,0.0002,1.0,1.0,0.4269,11.0,6
0.9862,0.0099,-0.386,-0.1063,0.3404,-0.0057,0.0003,1.0,1.0,0.7061,11.0,6
0.5764,0.0779,-0.0663,-0.0886,0.3724,0.1067,0.0001,1.0,1.0,0.3903,11.0,6
0.8392,-0.0698,-0.2245,-0.182,0.1877,0.0862,0.0003,1.0,1.0,0.581,11.0,6
-0.3205,-0.4204,-0.1496,-0.2946,0.2618,-0.0144,0.0001,1.0,1.0,0.3663,11.0,6
-0.734,-0.4566,-0.2249,-0.0265,0.2769,-0.2047,0.0004,1.0,1.0,0.5955,11.0,6
-1.0,-0.0663,-0.3134,0.0111,0.293,-0.4135,0.0001,1.0,1.0,0.7,11.0,6
-1.0,0.3246,-0.2293,0.0214,0.2532,-0.3211,0.0005,1.0,1.0,0.7174,11.0,6
-0.7657,0.346,-0.1496,-0.0875,-0.0227,-0.036,0.0001,1.0,1.0,0.569,11.0,6
-0.4617,-0.0043,-0.1404,-0.2406,-0.1455,0.1331,0.0005,1.0,1.0,0.3217,11.0,6
-0.4462,-0.4604,-0.1568,-0.1815,-0.2733,0.1967,0.0001,1.0,1.0,0.44,11.0,6
-0.3835,-0.5089,-0.214,-0.0079,-0.3809,0.1765,0.0005,1.0,1.0,0.4481,11.0,6
-0.2729,-0.4145,-0.1778,0.1072,-0.3673,0.1532,0.0,1.0,0.85,0.3514,11.0,6
-0.4545,-0.1688,-0.058,0.1515,-0.4066,0.1405,0.0006,0.828,0.0,0.3255,11.0,6
-0.2886,-0.0965,-0.0696,0.1342,-0.4162,0.0643,0.0,0.5786,0.0,0.2081,11.0,6
0.2866,0.2167,-0.0058,0.0169,-0.0031,-0.111,0.0003,0.0002,0.0,0.2396,12.0,6
0.2677,0.1697,-0.0373,-0.0175,0.0269,-0.0779,0.0002,0.0003,0.0,0.2128,12.0,6
0.2285,0.045,-0.0357,-0.0253,0.0188,-0.0563,0.0003,0.0002,0.0,0.1571,12.0,6
0.2003,0.0505,-0.0092,0.0144,-0.0148,-0.0266,0.0003,0.0002,0.0,0.1379,12.0,6
0.194,0.0353,-0.0101,0.0074,0.0043,-0.0202,0.0002,0.0002,0.0,0.1316,12.0,6
0.093,0.0374,0.0036,0.0036,0.0112,-0.0166,0.0004,0.0002,0.0,0.0669,12.0,6
0.0554,0.0705,0.0255,-0.0077,-0.031,0.0028,0.0002,0.0003,0.0,0.0621,12.0,6
0.0603,0.0478,0.024,0.0091,-0.0237,0.0103,0.0004,0.0002,0.0,0.0537,12.0,6
0.0241,0.0753,0.0302,0.012,-0.0088,0.0157,0.0001,0.0003,0.0,0.0564,12.0,6
-0.0306,0.0528,0.0272,0.0206,-0.0436,0.0418,0.0005,0.0002,0.0,0.0445,12.0,6
0.0643,0.0523,-0.0015,0.0078,-0.0352,0.037,0.0001,0.0003,0.0,0.0553,12.0,6
0.1412,0.0433,0.012,0.0492,0.052,0.029,0.0005,0.0002,0.0,0.0988,12.0,6
0.1122,0.1064,0.0107,0.078,0.1151,0.034,0.0,0.0005,0.0,0.1033,12.0,6
0.33,0.1243,-0.0231,0.047,0.1905,0.02,0.0006,0.0027,0.3033,0.2356,12.0,6
0.3845,0.1419,-0.1547,-0.052,0.473,0.0732,0.0,1.0,0.97,0.2921,12.0,6
0.3344,0.2017,0.029,-0.0772,0.1247,0.0901,0.0006,1.0,1.0,0.261,12.0,6
0.6007,0.1977,0.0257,-0.1543,0.2456,0.1216,0.0,1.0,1.0,0.422,12.0,6
0.5481,0.1459,0.041,-0.2061,0.1965,0.2138,0.0005,1.0,1.0,0.3791,12.0,6
0.3385,-0.1959,-0.1694,-0.2315,0.0632,0.1301,0.0001,1.0,1.0,0.2841,12.0,6
0.1061,-0.1754,-0.1522,-0.3021,0.0887,0.1443,0.0006,1.0,1.0,0.1702,12.0,6
-0.3481,-0.5832,-0.1706,-0.3014,0.2811,-0.1701,0.0001,1.0,1.0,0.4669,12.0,6
-1.0,-0.56,-0.1185,0.0074,0.3284,-0.401,0.0005,1.0,1.0,0.7682,12.0,6
-1.0,-0.1171,-0.1022,0.2232,0.2252,-0.4563,0.0001,1.0,1.0,0.6747,12.0,6
-0.8105,0.695,-0.2305,0.2275,0.0171,-0.2564,0.0005,1.0,1.0,0.7282,12.0,6
-0.3358,0.3749,-0.1186,-0.2551,0.0006,0.0228,0.0001,1.0,1.0,0.3447,12.0,6
-0.3021,-0.367,-0.0511,-0.2004,-0.1165,0.1796,0.0005,1.0,1.0,0.3187,12.0,6
-0.2732,-0.4566,-0.1159,-0.0507,-0.1554,0.1925,0.0001,1.0,1.0,0.363,12.0,6
-0.3256,-0.3659,-0.1882,-0.0308,-0.1135,0.1078,0.0005,1.0,1.0,0.3498,12.0,6
-0.3865,-0.332,-0.1271,0.005,-0.1276,0.0582,0.0001,1.0,1.0,0.3501,12.0,6
-0.4114,-0.2426,0.0537,0.1392,-0.1774,0.1285,0.0005,1.0,1.0,0.3204,12.0,6
0.2262,0.1177,-0.0992,0.0073,0.0059,-0.0048,0.0,0.0004,0.0,0.1824,13.0,6
0.1572,0.0679,-0.0501,-0.0195,0.0621,0.0205,0.0006,0.0002,0.0,0.119,13.0,6
0.0953,0.0226,-0.0103,0.0038,0.003,0.0532,0.0,0.0005,0.0,0.0657,13.0,6
0.1582,0.0291,-0.024,-0.0052,0.0283,0.0255,0.0006,0.0002,0.0,0.1084,13.0,6
0.0855,0.017,-0.0129,-0.0045,0.0673,0.0041,0.0,0.0004,0.0,0.0587,13.0,6
0.0261,0.0322,0.0277,0.0147,0.0082,0.0321,0.0006,0.0002,0.0,0.0332,13.0,6
0.0958,0.025,-0.0042,-0.006,0.0077,0.0264,0.0,0.0004,0.0,0.0661,13.0,6
0.0609,0.0052,0.0035,-0.0078,0.0325,0.0113,0.0006,0.0001,0.0,0.0408,13.0,6
0.0073,0.0252,0.027,0.0061,0.0022,0.0281,0.0,0.0005,0.0,0.0251,13.0,6
0.0846,0.069,0.0307,0.0069,-0.0048,0.0245,0.0006,0.0001,0.0,0.0756,13.0,6
0.0966,0.0588,0.0234,0.0077,-0.0098,0.0353,0.0,0.0004,0.0,0.077,13.0,6
0.142,0.0246,0.0081,0.0347,-0.0289,0.0575,0.0006,0.0001,0.0,0.0962,13.0,6
0.3524,0.0577,-0.0021,0.0391,-0.0324,0.0391,0.0,0.0004,0.0,0.2381,13.0,6
0.5095,0.0717,-0.06,0.0204,0.0224,-0.0241,0.0006,0.0001,0.0,0.3454,13.0,6
0.9508,0.1497,-0.1126,-0.0683,0.1928,-0.0343,0.0,0.8782,0.0,0.6461,13.0,6
0.5565,0.0875,-0.152,-0.0856,0.4035,0.0512,0.0006,0.3176,0.92,0.389,13.0,6
0.2769,0.0633,-0.1213,-0.075,0.0306,0.1594,0.0,1.0,1.0,0.2059,13.0,6
0.5025,-0.015,-0.1869,-0.1763,0.2012,0.0273,0.0005,1.0,1.0,0.3575,13.0,6
0.0884,-0.1347,-0.1063,-0.2203,0.2588,-0.1268,0.0001,1.0,1.0,0.1287,13.0,6
-0.7023,-0.3238,0.0257,-0.175,0.2467,-0.0217,0.0003,1.0,1.0,0.5158,13.0,6
-0.628,-0.3476,-0.1685,-0.011,0.2453,-0.2344,0.0001,1.0,1.0,0.4916,13.0,6
-0.9481,-0.0839,-0.1587,0.0838,0.2642,-0.3611,0.0004,1.0,1.0,0.6433,13.0,6
-0.7427,0.2,-0.1524,0.0582,0.2146,-0.184,0.0002,1.0,1.0,0.5227,13.0,6
-0.5093,0.0926,-0.0436,-0.1142,0.056,-0.0712,0.0003,1.0,1.0,0.3463,13.0,6
-0.2994,-0.0783,-0.0153,-0.0892,0.0202,0.0241,0.0003,1.0,1.0,0.2066,13.0,6
-0.3933,-0.0988,-0.0823,-0.0604,-0.0715,0.1266,0.0003,1.0,1.0,0.2759,13.0,6
-0.3636,-0.1903,-0.1059,-0.1128,-0.1199,0.1438,0.0003,1.0,1.0,0.2826,13.0,6
-0.4154,-0.2874,-0.0798,-0.0242,-0.1683,0.165,0.0002,1.0,1.0,0.3409,13.0,6
-0.4318,-0.2369,0.0037,0.0774,-0.121,0.1718,0.0004,1.0,1.0,0.3283,13.0,6
-0.5225,0.0234,-0.0602,0.1109,-0.2134,0.146,0.0002,1.0,1.0,0.351,13.0,6
0.1068,0.0938,0.0281,-0.0379,-0.0507,0.0333,0.0001,0.0004,0.0,0.0966,14.0,6
0.1058,0.0488,-0.0126,-0.0041,-0.0415,0.0145,0.0005,0.0002,0.0,0.0781,14.0,6
0.0512,0.0761,-0.023,0.0235,-0.0484,0.0159,0.0001,0.0004,0.0,0.063,14.0,6
0.0651,0.0599,-0.0493,0.0145,-0.0683,0.0204,0.0004,0.0002,0.0,0.0675,14.0,6
0.0764,0.0396,-0.0775,0.0211,-0.0445,0.0165,0.0001,0.0003,0.0,0.0772,14.0,6
0.0556,0.0318,-0.0698,0.0131,-0.0407,0.019,0.0004,0.0003,0.0,0.0631,14.0,6
0.09,0.0378,-0.0972,0.012,-0.033,0.0128,0.0002,0.0003,0.0,0.0918,14.0,6
0.1051,0.0572,-0.0705,0.0136,-0.0054,0.0141,0.0003,0.0003,0.0,0.0926,14.0,6
0.1024,0.0594,-0.0561,0.0361,0.0007,0.0254,0.0002,0.0004,0.0,0.0873,14.0,6
0.1876,0.0916,-0.0547,0.0261,-0.0021,0.0255,0.0002,0.0002,0.0,0.1439,14.0,6
0.2334,0.0982,-0.0718,0.0421,0.0099,0.0261,0.0003,0.0002,0.0,0.1755,14.0,6
0.3853,0.1131,-0.1038,0.0197,-0.0072,0.0098,0.0002,0.0003,0.0,0.2765,14.0,6
0.6065,0.1447,-0.1811,0.0018,0.0624,-0.039,0.0003,0.0002,0.0,0.4328,14.0,6
0.9754,0.2357,-0.0945,-0.0449,0.2474,-0.0082,0.0001,0.0062,0.0,0.6719,14.0,6
0.5973,0.1094,-0.2222,-0.078,0.4928,0.1222,0.0004,1.0,0.89,0.4311,14.0,6
0.4172,0.0262,-0.1454,-0.1028,0.1472,0.1534,0.0,1.0,1.0,0.2951,14.0,6
0.2438,-0.2166,-0.2502,-0.2379,0.3117,-0.0525,0.0005,1.0,1.0,0.274,14.0,6
-0.391,-0.1998,0.0352,-0.1811,0.3233,-0.1606,0.0001,1.0,1.0,0.2936,14.0,6
-0.6587,-0.2252,-0.0843,-0.0584,0.177,-0.1263,0.0005,1.0,1.0,0.4675,14.0,6
-0.8419,-0.301,-0.1244,-0.0021,0.1464,-0.3393,0.0001,1.0,1.0,0.6018,14.0,6
-0.786,0.0695,-0.171,0.093,0.1276,-0.3189,0.0005,1.0,1.0,0.5383,14.0,6
-0.5611,0.148,-0.1154,-0.0523,0.1024,-0.1745,0.0001,1.0,1.0,0.3945,14.0,6
-0.4543,0.0417,-0.0413,-0.1002,0.0126,-0.0417,0.0005,1.0,1.0,0.3054,14.0,6
-0.4054,-0.0474,-0.0639,-0.1123,-0.1181,0.0669,0.0001,1.0,1.0,0.2754,14.0,6
-0.355,-0.1652,-0.1279,-0.0741,-0.2038,0.1382,0.0005,1.0,1.0,0.2746,14.0,6
-0.3939,-0.1501,-0.1509,-0.0335,-0.2028,0.1717,0.0001,1.0,1.0,0.2985,14.0,6
-0.4593,-0.1002,-0.0806,-0.0384,-0.2261,0.1908,0.0005,1.0,1.0,0.318,14.0,6
-0.4774,-0.1595,-0.0104,0.0256,-0.3143,0.2604,0.0,1.0,1.0,0.3356,14.0,6
-0.3401,-0.2386,-0.0348,0.1267,-0.3148,0.2294,0.0006,1.0,0.5833,0.2779,14.0,6
-0.2853,-0.1736,-0.127,0.1914,-0.3506,0.0609,0.0,0.7519,0.0,0.2382,14.0,6
0.304,0.1374,-0.0407,-0.0029,-0.0039,-0.0342,0.0001,0.0004,0.0,0.224,15.0,6
0.2224,0.1281,-0.0047,-0.0208,0.0099,-0.0138,0.0005,0.0002,0.0,0.1711,15.0,6
0.0957,0.1552,0.0378,0.0145,-0.0368,0.0185,0.0001,0.0004,0.0,0.1241,15.0,6
0.1198,0.1419,-0.0198,0.0215,-0.0782,0.0528,0.0005,0.0002,0.0,0.1245,15.0,6
0.1382,0.0794,-0.0691,0.0253,-0.0483,0.0608,0.0,0.0004,0.0,0.1158,15.0,6
0.0632,0.0507,-0.0781,0.0308,-0.045,0.0404,0.0005,0.0001,0.0,0.075,15.0,6
0.0706,0.0938,-0.0655,0.0103,-0.0491,0.0406,0.0,0.0004,0.0,0.0896,15.0,6
0.0708,0.0585,-0.0715,0.0168,-0.0397,0.0545,0.0006,0.0001,0.0,0.0776,15.0,6
0.0862,0.0626,-0.0737,0.0321,-0.0276,0.049,0.0,0.0004,0.0,0.0863,15.0,6
0.1204,0.0934,-0.0834,0.059,-0.0126,0.0541,0.0005,0.0001,0.0,0.1158,15.0,6
0.2131,0.0828,-0.1094,0.0445,-0.0053,0.0647,0.0,0.0003,0.0,0.169,15.0,6
0.3897,0.0939,-0.1525,0.0522,0.0701,0.0001,0.0006,0.0001,0.0,0.2859,15.0,6
0.6731,0.1576,-0.1837,-0.0088,0.21,-0.0159,0.0,0.0003,0.0,0.4769,15.0,6
0.642,0.0462,-0.2684,-0.0972,0.4593,0.1016,0.0006,0.0003,0.6933,0.4649,15.0,6
0.1885,0.1856,0.023,-0.0616,0.1194,0.1587,0.0,0.5364,1.0,0.177,15.0,6
0.8572,0.0861,-0.1166,-0.1353,0.1537,0.1261,0.0006,1.0,1.0,0.5796,15.0,6
0.5046,-0.0622,-0.2296,-0.2668,0.2947,0.0258,0.0,1.0,1.0,0.3719,15.0,6
-0.1002,-0.2348,-0.0153,-0.2382,0.1865,0.041,0.0005,1.0,1.0,0.1705,15.0,6
-0.2001,-0.1671,-0.2322,-0.2241,0.304,-0.2178,0.0001,1.0,1.0,0.2327,15.0,6
-1.0,-0.357,-0.0119,-0.1055,0.3405,-0.3078,0.0005,1.0,1.0,0.7079,15.0,6
-1.0,-0.0491,0.022,0.1001,0.1703,-0.2936,0.0001,1.0,1.0,0.6676,15.0,6
-0.6725,0.2464,-0.1587,0.1616,0.0701,-0.2474,0.0005,1.0,1.0,0.4891,15.0,6
-0.327,0.4929,-0.1965,-0.114,0.0349,-0.0464,0.0001,1.0,1.0,0.4155,15.0,6
-0.305,-0.0797,-0.1212,-0.2918,-0.0105,0.101,0.0005,1.0,1.0,0.2252,15.0,6
-0.3511,-0.4234,-0.0844,-0.109,-0.0698,0.1621,0.0001,1.0,1.0,0.371,15.0,6
-0.3578,-0.3143,-0.1541,0.0052,-0.1847,0.1761,0.0005,1.0,1.0,0.3337,15.0,6
-0.2037,-0.258,-0.2075,-0.0226,-0.2079,0.1417,0.0,1.0,1.0,0.2591,15.0,6
-0.2224,-0.3135,-0.1264,0.0256,-0.1537,0.1409,0.0005,1.0,1.0,0.2698,15.0,6
-0.2994,-0.1983,-0.0545,0.1436,-0.1835,0.1352,0.0,1.0,0.2633,0.2422,15.0,6
-0.2674,-0.1343,-0.0162,0.1378,-0.2692,0.0627,0.0005,0.7394,0.0,0.1998,15.0,6
0.2305,0.0588,-0.0014,-0.0445,0.0239,0.0161,0.0006,0.0001,0.0,0.1586,16.0,6
0.1044,0.0291,0.0361,0.0035,0.0035,-0.0163,0.0,0.0004,0.0,0.0761,16.0,6
0.0912,0.122,0.0165,0.0544,-0.0612,-0.0137,0.0006,0.0001,0.0,0.1021,16.0,6
0.0791,0.1633,-0.0032,0.041,-0.0521,0.0094,0.0,0.0005,0.0,0.121,16.0,6
0.0526,0.1431,-0.0152,0.027,-0.0632,0.0526,0.0006,0.0002,0.0,0.1022,16.0,6
0.0707,0.0737,-0.0512,0.0217,-0.0664,0.0638,0.0,0.0004,0.0,0.0761,16.0,6
0.1074,0.0569,-0.0881,0.0352,-0.0403,0.0594,0.0005,0.0001,0.0,0.1001,16.0,6
0.1052,0.0742,-0.0687,0.0251,0.0001,0.0612,0.0,0.0004,0.0,0.0973,16.0,6
0.0869,0.0584,-0.0505,0.0312,-0.0141,0.0644,0.0006,0.0001,0.0,0.0775,16.0,6
0.1923,0.0908,-0.0805,0.0457,-0.0369,0.062,0.0,0.0003,0.0,0.1516,16.0,6
0.3222,0.1137,-0.1022,0.0262,0.0105,0.0336,0.0005,0.0001,0.0,0.2377,16.0,6
0.3718,0.1076,-0.131,0.0083,0.089,-0.0086,0.0,0.0004,0.0,0.2724,16.0,6
0.4308,0.1646,-0.1395,-0.0071,0.0573,0.0935,0.0005,0.0002,0.0,0.3212,16.0,6
0.7131,0.2051,-0.0796,-0.0825,0.2008,0.0791,0.0,0.6648,0.0,0.4975,16.0,6
0.5199,0.1144,-0.1408,-0.0715,0.3539,0.1688,0.0005,0.0005,0.7033,0.3671,16.0,6
-0.0118,-0.0257,-0.0507,-0.0918,-0.2269,0.2147,0.0,1.0,1.0,0.0387,16.0,6
0.703,-0.3847,-0.0571,-0.1402,-0.107,0.1011,0.0005,1.0,1.0,0.5356,16.0,6
0.2183,-0.3857,-0.273,-0.0267,0.1203,-0.1881,0.0001,1.0,1.0,0.347,16.0,6
-0.4275,-0.0756,-0.1906,-0.079,0.3356,-0.3848,0.0003,1.0,1.0,0.3161,16.0,6
-0.9766,-0.0851,-0.0169,-0.1238,0.443,-0.4481,0.0002,1.0,1.0,0.6536,16.0,6
-1.0,0.1818,0.242,-0.0063,0.25,-0.3915,0.0004,1.0,1.0,0.6965,16.0,6
-0.4062,0.3566,0.0727,-0.088,-0.0177,-0.161,0.0003,1.0,1.0,0.3636,16.0,6
0.0046,0.1143,-0.0761,-0.1627,-0.0323,0.0987,0.0003,1.0,1.0,0.0916,16.0,6
-0.1982,-0.1522,-0.0427,-0.0834,-0.0539,0.221,0.0003,1.0,1.0,0.169,16.0,6
-0.3273,-0.2165,-0.0579,-0.0145,-0.1356,0.2516,0.0003,1.0,1.0,0.2644,16.0,6
-0.39,-0.1641,-0.1159,0.0017,-0.1852,0.2757,0.0003,1.0,1.0,0.2925,16.0,6
-0.3523,-0.1923,-0.1699,-0.0076,-0.225,0.243,0.0002,1.0,1.0,0.2906,16.0,6
-0.1888,-0.2142,-0.1232,0.0311,-0.222,0.2233,0.0004,1.0,0.7133,0.2073,16.0,6
-0.0699,-0.2325,-0.0562,0.0405,-0.188,0.138,0.0001,0.8958,0.0,0.1661,16.0,6
-0.022,-0.2309,-0.0359,0.1275,-0.1818,-0.008,0.0004,0.4977,0.0,0.1565,16.0,6
0.369,0.2256,-0.1313,0.0311,0.0637,-0.0984,0.0006,0.0002,0.0,0.3014,17.0,6
0.2942,0.2045,-0.0723,0.0096,0.0779,-0.0254,0.0,0.0004,0.0,0.2437,17.0,6
0.3124,0.1242,-0.0667,-0.0215,0.0338,0.0252,0.0006,0.0002,0.0,0.2285,17.0,6
0.3333,0.0878,-0.0641,-0.0444,0.0556,0.0055,0.0,0.0004,0.0,0.2337,17.0,6
0.1268,0.081,0.0161,-0.0329,0.0368,0.0099,0.0005,0.0003,0.0,0.1009,17.0,6
0.1041,0.1526,0.0219,0.0146,-0.0401,0.0133,0.0001,0.0004,0.0,0.1241,17.0,6
0.0845,0.1678,-0.0312,0.0048,-0.0504,0.0284,0.0005,0.0002,0.0,0.1269,17.0,6
0.0536,0.1213,-0.0788,-0.0001,-0.0505,0.0487,0.0001,0.0003,0.0,0.1028,17.0,6
0.0451,0.1205,-0.0772,0.0069,-0.0539,0.07,0.0004,0.0002,0.0,0.1,17.0,6
0.0796,0.0704,-0.1187,-0.0078,-0.0473,0.0672,0.0002,0.0003,0.0,0.1062,17.0,6
0.1117,0.0495,-0.1357,0.0034,-0.0114,0.0563,0.0003,0.0003,0.0,0.1217,17.0,6
0.1709,0.061,-0.1231,0.0206,0.023,0.0534,0.0002,0.0003,0.0,0.1462,17.0,6
0.2332,0.0417,-0.1911,0.0196,0.0584,0.0304,0.0003,0.0002,0.0,0.2029,17.0,6
0.4512,0.0726,-0.2421,0.03,0.1156,-0.0146,0.0003,0.0003,0.0,0.3448,17.0,6
0.2695,0.1972,-0.1564,-0.0269,0.2501,-0.02,0.0002,0.7217,0.2167,0.2459,17.0,6
0.4098,0.2324,-0.0202,0.0254,0.0458,0.0896,0.0003,1.0,1.0,0.3143,17.0,6
0.6487,0.2264,-0.1209,-0.0105,0.1279,0.1555,0.0002,1.0,1.0,0.4651,17.0,6
0.5527,0.1312,-0.2007,-0.1871,0.2378,0.1309,0.0004,1.0,1.0,0.4017,17.0,6
0.3098,-0.1738,-0.082,-0.3179,0.2623,0.0178,0.0002,1.0,1.0,0.243,17.0,6
-0.0897,-0.3891,-0.1517,-0.2554,0.1865,-0.1629,0.0004,1.0,1.0,0.2848,17.0,6
-0.7368,-0.2643,-0.1292,0.0014,0.2732,-0.2475,0.0001,1.0,1.0,0.5289,17.0,6
-0.8721,0.0761,-0.1395,0.0519,0.2351,-0.3634,0.0004,1.0,1.0,0.5909,17.0,6
-0.8597,0.196,-0.0742,0.0004,0.1711,-0.3316,0.0001,1.0,1.0,0.5899,17.0,6
-0.5773,0.31,-0.0169,-0.1198,0.0446,-0.1347,0.0005,1.0,1.0,0.437,17.0,6
-0.2749,-0.0076,-0.0682,-0.1584,-0.0878,0.048,0.0001,1.0,1.0,0.1889,17.0,6
-0.2694,-0.1381,-0.0811,-0.0799,-0.1156,0.1518,0.0005,1.0,1.0,0.2089,17.0,6
-0.3644,-0.1728,-0.0919,-0.0478,-0.1764,0.2241,0.0,1.0,1.0,0.2757,17.0,6
-0.3436,-0.2326,-0.1382,-0.0384,-0.2245,0.2067,0.0005,1.0,1.0,0.2916,17.0,6
-0.2975,-0.2257,-0.1431,0.002,-0.2491,0.2004,0.0,1.0,1.0,0.2666,17.0,6
-0.2372,-0.2269,-0.056,0.061,-0.229,0.2096,0.0006,1.0,1.0,0.222,17.0,6
0.3143,0.0936,-0.0743,-0.038,0.0317,-0.001,0.0002,0.0003,0.0,0.2242,18.0,6
0.2796,0.0403,-0.0799,-0.0129,0.03,-0.0108,0.0002,0.0003,0.0,0.1957,18.0,6
0.2402,0.0601,-0.1014,0.0041,-0.0503,0.0044,0.0002,0.0003,0.0,0.1784,18.0,6
0.2808,0.0856,-0.1341,-0.0094,-0.0323,-0.0354,0.0003,0.0003,0.0,0.2151,18.0,6
0.1763,0.0772,-0.1025,-0.0018,-0.005,-0.0385,0.0001,0.0003,0.0,0.1454,18.0,6
0.0856,0.1652,-0.059,0.0482,-0.0423,-0.0042,0.0004,0.0002,0.0,0.1301,18.0,6
0.1362,0.1895,-0.086,0.0183,-0.0607,0.0407,0.0001,0.0004,0.0,0.1658,18.0,6
0.1884,0.0843,-0.143,0.0092,-0.0336,0.0565,0.0005,0.0002,0.0,0.1674,18.0,6
0.1867,0.0608,-0.1396,0.0215,0.0074,0.0485,0.0,0.0004,0.0,0.1606,18.0,6
0.218,0.0429,-0.1584,0.0123,-0.0123,0.059,0.0005,0.0002,0.0,0.1819,18.0,6
0.3933,0.0085,-0.2441,-0.0062,-0.0254,0.0523,0.0,0.0004,0.0,0.3086,18.0,6
0.588,0.0272,-0.2266,-0.0102,0.045,0.023,0.0005,0.0002,0.0,0.4205,18.0,6
0.5626,-0.0126,-0.2534,-0.0361,0.0928,0.0496,0.0,0.0004,0.0,0.4114,18.0,6
0.8361,0.0362,-0.2225,-0.0457,0.0562,0.0124,0.0005,0.0955,0.0,0.5773,18.0,6
0.6854,0.0879,-0.3051,-0.173,0.4254,-0.061,0.0,1.0,0.6733,0.5036,18.0,6
-0.0814,0.1136,-0.2108,-0.2738,0.5227,0.0116,0.0006,0.5971,1.0,0.1686,18.0,6
-0.0471,0.0001,0.1005,-0.196,0.121,-0.0786,0.0,1.0,1.0,0.074,18.0,6
-0.3666,-0.1704,-0.098,-0.1472,0.424,-0.3577,0.0006,1.0,1.0,0.2773,18.0,6
-0.9017,-0.0386,0.0911,0.0297,0.3223,-0.2394,0.0,1.0,1.0,0.6048,18.0,6
-0.7125,0.1385,-0.0198,0.0591,0.1925,-0.2254,0.0005,1.0,1.0,0.4841,18.0,6
-0.5012,0.2712,-0.1109,-0.0251,0.0478,-0.0801,0.0001,1.0,1.0,0.387,18.0,6
-0.3874,0.0817,-0.1166,-0.1872,-0.0727,0.0811,0.0005,1.0,1.0,0.2752,18.0,6
-0.2624,-0.2415,-0.1413,-0.151,-0.0929,0.1736,0.0,1.0,1.0,0.2558,18.0,6
-0.2639,-0.3006,-0.1093,-0.058,-0.101,0.2009,0.0005,1.0,1.0,0.2765,18.0,6
-0.2218,-0.308,-0.1409,-0.0109,-0.1307,0.1704,0.0,1.0,1.0,0.2699,18.0,6
-0.1345,-0.2368,-0.1539,-0.0209,-0.1159,0.1216,0.0005,1.0,1.0,0.2085,18.0,6
-0.109,-0.1931,-0.1026,-0.0105,-0.0629,0.0861,0.0,1.0,1.0,0.1629,18.0,6
-0.1648,-0.1647,-0.011,0.0526,-0.0387,0.0946,0.0005,1.0,1.0,0.1555,18.0,6
-0.3245,-0.1263,0.0465,0.1531,-0.0937,0.0776,0.0,1.0,1.0,0.2342,18.0,6
-0.303,0.0191,-0.0187,0.1843,-0.2,0.1058,0.0005,0.9568,0.04,0.2028,18.0,6
0.2398,0.1569,-0.0562,-0.0706,0.0708,-0.0132,0.0006,0.0002,0.0,0.1947,19.0,6
0.2723,0.121,-0.0779,-0.0472,0.0271,-0.0108,0.0,0.0005,0.0,0.2054,19.0,6
0.2411,0.0997,-0.0646,-0.0116,0.0409,-0.0259,0.0006,0.0002,0.0,0.1792,19.0,6
0.1249,0.1315,-0.0275,0.0095,-0.0027,-0.0055,0.0,0.0005,0.0,0.1223,19.0,6
0.1221,0.1376,-0.0226,-0.0074,-0.0751,0.005,0.0006,0.0002,0.0,0.1236,19.0,6
0.1415,0.0998,-0.0993,0.0265,-0.0759,0.0015,0.0,0.0005,0.0,0.1331,19.0,6
0.1073,0.1103,-0.1193,0.0463,-0.0688,0.0184,0.0006,0.0001,0.0,0.1298,19.0,6
0.1038,0.1221,-0.1286,0.0411,-0.0676,0.0363,0.0,0.0005,0.0,0.137,19.0,6
0.1475,0.1209,-0.1282,0.0133,-0.0297,0.0423,0.0006,0.0002,0.0,0.1532,19.0,6
0.1881,0.0776,-0.1119,0.0047,-0.0062,0.0632,0.0,0.0004,0.0,0.1548,19.0,6
0.3018,0.0425,-0.1042,0.0132,0.015,0.0485,0.0006,0.0001,0.0,0.2147,19.0,6
0.474,0.0972,-0.1315,0.0392,0.0543,-0.0081,0.0,0.0003,0.0,0.3343,19.0,6
0.5537,0.2548,-0.1102,0.0065,0.1226,-0.0034,0.0006,0.0002,0.0,0.4129,19.0,6
0.5354,0.2188,-0.19,-0.0408,0.2424,0.0896,0.0,0.0006,0.0,0.4059,19.0,6
0.4608,0.1721,-0.2464,-0.0937,0.1725,0.0665,0.0006,0.7703,0.1867,0.3668,19.0,6
0.2925,0.1014,-0.2131,-0.1738,0.1061,0.032,0.0,1.0,1.0,0.2505,19.0,6
0.2269,-0.0391,-0.1159,-0.1586,0.1123,0.0975,0.0005,1.0,1.0,0.1719,19.0,6
-0.0099,0.0118,-0.1268,-0.1693,0.2921,-0.089,0.0,1.0,1.0,0.0851,19.0,6
-0.3852,-0.0577,-0.1105,-0.1894,0.1811,-0.2042,0.0005,1.0,1.0,0.2699,19.0,6
-0.7931,-0.0174,-0.0181,-0.0614,0.1796,-0.1798,0.0001,1.0,1.0,0.529,19.0,6
-0.7156,0.1801,-0.0142,0.0369,0.1589,-0.1171,0.0005,1.0,1.0,0.492,19.0,6
-0.6289,0.2285,-0.018,-0.0778,0.0335,-0.0396,0.0001,1.0,1.0,0.4462,19.0,6
-0.3071,-0.034,-0.0943,-0.1628,-0.0276,0.0656,0.0005,1.0,1.0,0.2154,19.0,6
-0.2524,-0.3571,-0.0674,-0.1124,-0.0117,0.1098,0.0001,1.0,1.0,0.295,19.0,6
-0.1913,-0.426,-0.1118,-0.0066,-0.08,0.0889,0.0004,1.0,1.0,0.3201,19.0,6
-0.2371,-0.2914,-0.1403,0.0325,-0.1356,0.0653,0.0001,1.0,1.0,0.2674,19.0,6
-0.2692,-0.1583,-0.1243,0.047,-0.2001,0.0909,0.0004,1.0,1.0,0.2241,19.0,6
-0.3607,-0.1839,-0.0192,0.086,-0.1921,0.1457,0.0001,1.0,0.96,0.2702,19.0,6
-0.3946,-0.1248,-0.0615,0.1399,-0.2478,0.099,0.0003,0.9561,0.0,0.279,19.0,6
-0.2925,0.0252,-0.1147,0.1278,-0.302,0.0296,0.0002,0.5263,0.0,0.2101,19.0,6
0.3469,0.314,-0.0971,0.0005,0.0472,-0.1994,0.0006,0.0002,0.0,0.3186,20.0,6
0.3233,0.2754,-0.1065,0.0111,-0.0085,-0.0691,0.0,0.0004,0.0,0.2919,20.0,6
0.3616,0.1854,-0.1459,-0.0277,0.0205,-0.0106,0.0006,0.0001,0.0,0.2878,20.0,6
0.2498,0.1039,-0.105,-0.0322,0.0632,-0.0218,0.0,0.0005,0.0,0.1935,20.0,6
0.1159,0.1469,-0.0452,-0.0149,0.0184,-0.0133,0.0006,0.0002,0.0,0.1283,20.0,6
0.0625,0.2066,-0.0314,-0.0148,-0.0349,0.0084,0.0,0.0004,0.0,0.1454,20.0,6
0.0315,0.1347,-0.0464,-0.0069,-0.0295,0.0214,0.0006,0.0002,0.0,0.0973,20.0,6
-0.0201,0.0998,-0.0755,0.0416,-0.0439,0.0235,0.0,0.0004,0.0,0.0845,20.0,6
0.0172,0.1376,-0.0916,0.0487,-0.0548,0.0255,0.0006,0.0001,0.0,0.1108,20.0,6
0.0537,0.1253,-0.0737,0.0467,-0.0089,0.0407,0.0,0.0004,0.0,0.1033,20.0,6
-0.012,0.1855,-0.0809,0.0698,0.0093,0.0579,0.0005,0.0001,0.0,0.1351,20.0,6
0.0877,0.2651,-0.0207,0.0764,-0.009,0.0812,0.0,0.0005,0.0,0.1866,20.0,6
0.2518,0.2673,-0.0923,0.1277,0.1062,0.1015,0.0005,0.0001,0.0,0.2524,20.0,6
0.4734,0.2906,-0.2087,0.1407,0.1392,0.0965,0.0,0.0008,0.0867,0.3956,20.0,6
0.9258,0.4181,-0.2105,0.0186,0.1934,0.1987,0.0005,1.0,0.9967,0.6916,20.0,6
0.6602,0.3527,-0.0681,-0.1297,0.2621,0.3093,0.0,1.0,1.0,0.501,20.0,6
0.5571,-0.0544,-0.186,-0.1333,0.059,0.3576,0.0005,1.0,1.0,0.3932,20.0,6
0.6776,-0.2816,-0.6227,-0.188,-0.08,0.2,0.0001,1.0,1.0,0.6416,20.0,6
0.3922,-0.3315,-0.4672,-0.2028,0.3512,0.0787,0.0004,1.0,1.0,0.4628,20.0,6
-0.0754,-0.7174,-0.3185,-0.1821,0.2621,-0.0306,0.0002,1.0,1.0,0.5257,20.0,6
-0.6012,-0.3206,-0.2068,0.0171,0.3515,-0.3924,0.0003,1.0,1.0,0.4747,20.0,6
-1.0,0.1242,-0.0831,0.0143,0.2981,-0.2868,0.0003,1.0,1.0,0.6741,20.0,6
-0.9881,0.3853,-0.0276,0.0937,0.1923,-0.2963,0.0003,1.0,1.0,0.7073,20.0,6
-0.5972,0.6014,0.0153,-0.1044,0.0661,-0.0839,0.0003,1.0,1.0,0.5651,20.0,6
-0.3489,-0.0296,0.0097,-0.2043,-0.0697,0.1065,0.0003,1.0,1.0,0.2335,20.0,6
-0.1312,-0.3714,-0.0626,-0.0956,-0.0769,0.0872,0.0003,1.0,1.0,0.2659,20.0,6
-0.0662,-0.3637,-0.1113,0.0609,-0.0898,0.0019,0.0002,1.0,1.0,0.2574,20.0,6
0.0422,-0.1047,-0.1249,0.0572,-0.0461,-0.0577,0.0004,1.0,1.0,0.1123,20.0,6
-0.111,0.0114,-0.0462,0.0383,0.0414,-0.0485,0.0002,1.0,1.0,0.0805,20.0,6
-0.2663,0.0943,0.0585,0.0412,-0.0062,0.0041,0.0004,1.0,1.0,0.1924,20.0,6
0.459,0.2595,-0.3462,0.0905,0.0331,-0.1451,0.0005,0.0002,0.0,0.4205,21.0,6
0.3362,0.2228,-0.2929,0.0365,0.061,-0.0691,0.0001,0.0004,0.0,0.3323,21.0,6
0.3539,0.2198,-0.2637,-0.0064,0.0452,-0.0228,0.0004,0.0001,0.0,0.3287,21.0,6
0.3287,0.2007,-0.2205,-0.0524,0.0751,0.0024,0.0001,0.0003,0.0,0.2959,21.0,6
0.1768,0.0999,-0.1675,-0.0712,0.0432,0.0357,0.0004,0.0002,0.0,0.1755,21.0,6
0.1798,0.1008,-0.1824,-0.0069,-0.0136,0.01,0.0001,0.0003,0.0,0.1835,21.0,6
0.1334,0.2092,-0.1945,0.0082,-0.0027,-0.0088,0.0003,0.0003,0.0,0.2102,21.0,6
0.0364,0.2377,-0.1683,-0.0161,-0.0086,0.0228,0.0002,0.0003,0.0,0.1957,21.0,6
0.0211,0.2132,-0.1879,0.0041,-0.048,0.0557,0.0003,0.0003,0.0,0.19,21.0,6
0.1016,0.1916,-0.2436,0.025,-0.0336,0.0644,0.0002,0.0003,0.0,0.2174,21.0,6
0.1299,0.1746,-0.2846,0.0155,0.0157,0.0657,0.0002,0.0003,0.0,0.2389,21.0,6
0.1763,0.1584,-0.2389,0.0069,0.0322,0.0806,0.0003,0.0003,0.0,0.2244,21.0,6
0.4033,0.1556,-0.2385,0.0029,0.0618,0.0789,0.0002,0.0004,0.0,0.3291,21.0,6
0.6185,0.1935,-0.2302,-0.0542,0.1482,0.0476,0.0004,0.0005,0.0,0.4585,21.0,6
0.8071,0.1606,-0.1893,-0.1282,0.2599,0.0474,0.0001,0.9277,0.5267,0.563,21.0,6
0.6759,0.133,-0.2545,-0.1337,0.1635,0.066,0.0004,1.0,1.0,0.4896,21.0,6
0.8836,0.0828,-0.266,-0.1394,0.2358,0.1209,0.0001,1.0,1.0,0.6176,21.0,6
0.6254,-0.1451,-0.4769,-0.363,0.2115,-0.0376,0.0004,1.0,1.0,0.5331,21.0,6
-0.2297,-0.4611,-0.1984,-0.326,0.2345,-0.025,0.0001,1.0,1.0,0.368,21.0,6
-0.7136,-0.4481,-0.1984,-0.0218,0.2269,-0.2942,0.0004,1.0,1.0,0.5771,21.0,6
-1.0,0.2175,-0.2416,0.0749,0.3174,-0.5264,0.0001,1.0,1.0,0.701,21.0,6
-1.0,0.4612,-0.1664,0.1262,0.1694,-0.2079,0.0005,1.0,1.0,0.7425,21.0,6
-0.6682,0.4842,-0.1597,-0.0173,-0.0166,0.0208,0.0001,1.0,1.0,0.5603,21.0,6
-0.281,0.0215,-0.2133,-0.2106,-0.0466,0.1424,0.0005,1.0,1.0,0.2356,21.0,6
-0.1774,-0.4045,-0.1546,-0.2064,-0.0397,0.1413,0.0001,1.0,1.0,0.312,21.0,6
-0.1947,-0.4686,-0.1,-0.0397,-0.0858,0.0918,0.0005,1.0,1.0,0.3448,21.0,6
-0.0327,-0.2556,-0.1529,0.0809,-0.0703,-0.0181,0.0001,1.0,1.0,0.1997,21.0,6
-0.0854,0.1318,-0.0895,0.0739,-0.0206,-0.037,0.0005,1.0,1.0,0.1205,21.0,6
-0.1687,0.058,0.0115,-0.0171,-0.0168,0.0249,0.0,1.0,1.0,0.1192,21.0,6
-0.2428,-0.0008,0.0576,0.0167,-0.072,0.0355,0.0005,1.0,1.0,0.1663,21.0,6
0.3364,0.0208,-0.1614,-0.0504,-0.0205,-0.0642,0.0004,0.0003,0.0,0.2492,22.0,6
0.2882,0.0335,-0.1244,-0.0049,0.0091,-0.0655,0.0002,0.0004,0.0,0.2105,22.0,6
0.2648,0.0864,-0.1209,0.0133,-0.0051,-0.0493,0.0004,0.0003,0.0,0.2024,22.0,6
0.292,0.0973,-0.117,-0.0189,-0.0017,-0.023,0.0001,0.0004,0.0,0.2195,22.0,6
0.2487,0.0859,-0.1009,-0.059,0.0198,-0.0228,0.0005,0.0002,0.0,0.1878,22.0,6
0.1857,0.0571,-0.0505,-0.0125,0.0018,-0.0083,0.0,0.0004,0.0,0.1338,22.0,6
0.2046,0.1335,-0.0452,0.0168,-0.0053,-0.0022,0.0006,0.0002,0.0,0.1656,22.0,6
0.1865,0.1221,-0.0444,-0.0114,0.0055,0.0087,0.0,0.0004,0.0,0.1516,22.0,6
0.0969,0.1082,-0.0026,0.0182,-0.0183,0.0371,0.0005,0.0002,0.0,0.0969,22.0,6
0.1904,0.1345,-0.0317,0.0266,-0.0468,0.0591,0.0,0.0005,0.0,0.1568,22.0,6
0.2584,0.0672,-0.0712,0.0218,-0.0067,0.0646,0.0006,0.0002,0.0,0.1842,22.0,6
0.2716,0.0447,-0.1238,0.0237,-0.0165,0.0535,0.0,0.0005,0.0,0.2012,22.0,6
0.5087,0.0253,-0.1598,-0.0068,-0.0648,0.0638,0.0006,0.0001,0.0,0.3559,22.0,6
0.8666,0.0563,-0.1948,-0.0385,-0.0007,0.0152,0.0,0.0009,0.0,0.5933,22.0,6
0.9862,0.0659,-0.3774,-0.0702,0.2648,-0.0021,0.0006,0.987,0.05,0.7053,22.0,6
0.6698,-0.0563,-0.2845,-0.1265,0.6536,0.052,0.0,1.0,1.0,0.4866,22.0,6
-0.1811,-0.1212,-0.265,-0.2334,0.2156,-0.1006,0.0006,1.0,1.0,0.2287,22.0,6
0.1556,-0.5351,-0.4566,-0.2427,0.5817,-0.393,0.0,1.0,1.0,0.4803,22.0,6
-1.0,-0.1468,0.0233,0.0753,0.3695,-0.1889,0.0005,1.0,1.0,0.674,22.0,6
-1.0,0.3001,0.0602,0.0374,0.2339,-0.3055,0.0001,1.0,1.0,0.6972,22.0,6
-0.8307,0.4556,0.0396,-0.01,0.1153,-0.0495,0.0005,1.0,1.0,0.6322,22.0,6
-0.5005,0.0308,-0.0322,-0.2301,-0.0298,0.07,0.0001,1.0,1.0,0.335,22.0,6
-0.2168,-0.3489,-0.1139,-0.1751,-0.0755,0.1431,0.0005,1.0,1.0,0.2842,22.0,6
-0.1487,-0.4406,-0.1022,-0.0509,-0.0632,0.1429,0.0001,1.0,1.0,0.3174,22.0,6
-0.0987,-0.2896,-0.1546,-0.0215,-0.1001,0.0698,0.0004,1.0,1.0,0.2286,22.0,6
-0.1038,-0.2231,-0.087,-0.0307,-0.0795,0.0717,0.0,1.0,1.0,0.174,22.0,6
-0.2772,-0.161,0.0172,0.0238,-0.0931,0.061,0.0005,1.0,1.0,0.214,22.0,6
-0.4322,-0.0849,0.0346,0.0916,-0.1677,0.1359,0.0,1.0,1.0,0.2946,22.0,6
-0.4246,-0.0911,-0.0082,0.1314,-0.3004,0.1813,0.0005,1.0,0.68,0.2895,22.0,6
-0.2584,0.0291,-0.0944,0.1317,-0.3608,0.1539,0.0,0.7755,0.0,0.1844,22.0,6
0.3254,0.0538,-0.0544,0.0695,0.0736,-0.1303,0.0006,0.0002,0.0,0.2229,23.0,6
0.384,0.163,-0.0325,0.1199,0.0718,-0.1386,0.0,0.0005,0.0,0.279,23.0,6
0.3672,0.2667,0.007,0.0544,0.1162,-0.0627,0.0005,0.0002,0.0,0.3026,23.0,6
0.2763,0.184,0.0213,0.0004,0.0696,0.0263,0.0,0.0004,0.0,0.2217,23.0,6
0.2656,0.1237,-0.02,-0.0123,0.0195,0.0383,0.0006,0.0002,0.0,0.1958,23.0,6
0.2243,0.1148,-0.0186,0.0086,0.0246,0.0281,0.0,0.0005,0.0,0.1684,23.0,6
0.1392,0.1065,-0.0565,0.0451,-0.0239,0.0483,0.0006,0.0002,0.0,0.1227,23.0,6
0.1611,0.1524,-0.0904,0.023,-0.0543,0.055,0.0,0.0005,0.0,0.1597,23.0,6
0.1677,0.1063,-0.127,0.0178,-0.0496,0.0599,0.0006,0.0002,0.0,0.1571,23.0,6
0.1867,0.0969,-0.1752,0.0504,-0.0455,0.0648,0.0,0.0005,0.0,0.1825,23.0,6
0.194,0.153,-0.1629,0.0238,-0.0143,0.0599,0.0006,0.0002,0.0,0.1973,23.0,6
0.1784,0.101,-0.1982,0.0111,0.0081,0.0565,0.0,0.0005,0.0,0.1901,23.0,6
0.2929,0.1144,-0.1966,0.0103,0.0538,0.0588,0.0006,0.0003,0.0,0.2472,23.0,6
0.6124,0.1548,-0.2314,-0.066,0.2619,0.025,0.0,0.111,0.0,0.4485,23.0,6
0.4437,0.0097,-0.2352,-0.1209,0.6184,-0.0238,0.0006,1.0,0.87,0.3349,23.0,6
0.0791,0.0663,-0.0566,0.011,0.0938,0.0401,0.0,1.0,1.0,0.0785,23.0,6
0.7389,0.1105,-0.2543,-0.1576,0.0788,0.0106,0.0005,1.0,1.0,0.5261,23.0,6
0.4702,-0.2941,-0.2686,-0.2942,0.2871,-0.0565,0.0001,1.0,1.0,0.4108,23.0,6
-0.5049,-0.3336,0.2311,0.0564,0.1486,-0.0568,0.0005,1.0,1.0,0.4318,23.0,6
-0.2976,0.034,-0.0156,-0.1922,0.0223,-0.3034,0.0002,1.0,1.0,0.2,23.0,6
-0.878,-0.2705,-0.0341,0.023,0.2461,-0.3825,0.0004,1.0,1.0,0.6129,23.0,6
-1.0,0.4614,0.0479,0.1705,0.0373,-0.1615,0.0002,1.0,1.0,0.7349,23.0,6
-0.5858,0.3329,-0.0643,-0.0897,-0.0862,0.019,0.0004,1.0,1.0,0.4512,23.0,6
-0.3854,0.046,-0.1368,-0.1499,-0.1032,0.1479,0.0002,1.0,1.0,0.2743,23.0,6
-0.1974,-0.2274,-0.1714,-0.1928,-0.1465,0.1816,0.0004,1.0,1.0,0.231,23.0,6
-0.0536,-0.4011,-0.1215,-0.069,-0.1418,0.1515,0.0002,1.0,1.0,0.2817,23.0,6
-0.0765,-0.2763,-0.067,-0.0026,-0.0629,0.0946,0.0003,1.0,1.0,0.1963,23.0,6
-0.1337,-0.2266,-0.0397,0.013,-0.0875,0.0309,0.0002,1.0,1.0,0.1774,23.0,6
-0.1393,-0.1298,-0.0547,0.0608,-0.1523,0.0147,0.0003,1.0,0.72,0.1321,23.0,6
-0.0936,-0.0725,-0.0489,0.0769,-0.149,-0.0118,0.0002,0.8221,0.0,0.0854,23.0,6
0.2117,0.0361,-0.1,0.0687,-0.0294,-0.0138,0.0007,0.0002,0.0,0.1579,24.0,6
0.2847,0.0534,-0.1087,0.0609,-0.0108,-0.0157,0.0,0.0005,0.0,0.2062,24.0,6
0.3153,0.0501,-0.1551,0.0631,0.0087,-0.0337,0.0006,0.0002,0.0,0.2366,24.0,6
0.4048,0.1712,-0.1293,0.029,0.0734,-0.053,0.0,0.0005,0.0,0.3054,24.0,6
0.2782,0.1442,0.028,-0.0421,0.1364,0.0108,0.0006,0.0002,0.0,0.2097,24.0,6
0.2146,0.0251,0.0198,-0.0205,0.0492,0.0503,0.0,0.0005,0.0,0.1447,24.0,6
0.2073,0.0128,0.0064,0.0045,0.0199,0.0499,0.0005,0.0002,0.0,0.1385,24.0,6
0.1898,-0.0021,-0.0715,-0.0007,-0.035,0.0427,0.0,0.0004,0.0,0.1352,24.0,6
0.2169,0.0224,-0.0547,-0.0184,0.0028,0.0073,0.0005,0.0002,0.0,0.1499,24.0,6
0.1177,0.0872,0.0347,0.022,0.0283,-0.0274,0.0,0.0004,0.0,0.1004,24.0,6
0.059,0.1756,0.0694,0.0649,-0.001,-0.0155,0.0005,0.0002,0.0,0.1319,24.0,6
0.1456,0.2129,-0.0052,0.047,-0.0427,0.052,0.0,0.0004,0.0,0.172,24.0,6
0.332,0.1149,-0.1048,-0.022,-0.0342,0.0772,0.0005,0.0002,0.0,0.2444,24.0,6
0.6394,0.0359,-0.1783,-0.0276,0.0959,0.0384,0.0001,0.0008,0.0,0.4432,24.0,6
0.6472,0.0862,-0.1558,-0.0028,0.2595,0.0778,0.0004,0.9421,0.4433,0.4475,24.0,6
0.5806,0.1961,-0.133,-0.0992,0.3409,0.0961,0.0001,1.0,1.0,0.418,24.0,6
0.3987,-0.048,-0.1509,-0.1591,0.0113,0.0638,0.0004,1.0,1.0,0.286,24.0,6
0.6636,-0.2443,-0.231,-0.1751,0.1952,-0.0483,0.0002,1.0,1.0,0.4959,24.0,6
-0.0924,-0.3076,-0.1579,-0.2333,0.2781,-0.1439,0.0004,1.0,1.0,0.2386,24.0,6
-0.9586,-0.3079,0.1607,-0.0501,0.2179,-0.1875,0.0003,1.0,1.0,0.6797,24.0,6
-0.9205,-0.0526,0.0726,0.0281,0.2301,-0.2933,0.0003,1.0,1.0,0.6166,24.0,6
-0.9376,0.3317,-0.0363,0.1374,0.1349,-0.229,0.0003,1.0,1.0,0.6635,24.0,6
-0.6783,0.4105,-0.0611,-0.1361,-0.0766,0.0372,0.0003,1.0,1.0,0.5301,24.0,6
-0.2229,-0.2297,-0.2503,-0.2816,-0.0982,0.1057,0.0004,1.0,1.0,0.2709,24.0,6
-0.0583,-0.5532,-0.1888,-0.1658,-0.0356,0.0836,0.0003,1.0,1.0,0.3916,24.0,6
-0.1492,-0.5136,-0.0925,-0.0007,-0.0495,0.0218,0.0004,1.0,1.0,0.3618,24.0,6
-0.176,-0.2508,-0.0585,0.09,-0.0919,-0.0046,0.0002,1.0,1.0,0.208,24.0,6
-0.4094,-0.0096,0.0383,0.0807,-0.1427,0.0219,0.0004,1.0,1.0,0.2742,24.0,6
-0.3518,-0.014,-0.0211,0.0467,-0.2597,0.0741,0.0001,1.0,0.8733,0.2351,24.0,6
-0.2147,-0.1058,-0.0396,0.0405,-0.2954,0.13,0.0005,1.0,0.0,0.1617,24.0,6
0.3589,0.1662,-0.1681,0.0733,-0.0208,-0.191,0.0,0.0005,0.0,0.2865,25.0,6
0.3008,0.3066,-0.1454,0.0523,0.0033,-0.1258,0.0005,0.0002,0.0,0.3023,25.0,6
0.4124,0.2592,-0.2276,-0.0692,0.1263,-0.0154,0.0,0.0004,0.0,0.3584,25.0,6
0.1087,0.0724,-0.0538,-0.1083,0.1402,0.0489,0.0005,0.0002,0.0,0.0942,25.0,6
0.1108,0.0908,0.0688,-0.0592,0.0506,0.0299,0.0,0.0005,0.0,0.1059,25.0,6
0.1021,0.1085,0.0755,-0.0347,0.0359,-0.0124,0.0005,0.0002,0.0,0.1113,25.0,6
0.0474,0.1028,0.0499,-0.0221,-0.0066,0.0066,0.0001,0.0004,0.0,0.0825,25.0,6
0.0999,0.079,0.0209,0.0005,-0.0599,0.0044,0.0005,0.0002,0.0,0.086,25.0,6
0.1552,0.1047,-0.0256,0.0342,-0.0537,0.0051,0.0001,0.0004,0.0,0.1259,25.0,6
0.1567,0.1174,-0.0352,0.0531,-0.0508,0.0288,0.0004,0.0003,0.0,0.1326,25.0,6
0.2507,0.1128,-0.0706,0.0606,-0.0772,0.0582,0.0001,0.0003,0.0,0.1893,25.0,6
0.4534,0.101,-0.1312,0.0365,-0.0624,0.0702,0.0003,0.0003,0.0,0.3218,25.0,6
0.5765,0.0566,-0.1221,-0.0131,-0.0477,0.0734,0.0002,0.0003,0.0,0.3947,25.0,6
0.6838,0.0429,-0.1778,-0.0003,-0.074,-0.002,0.0003,0.0006,0.0,0.4719,25.0,6
0.9862,0.1797,-0.4358,-0.0568,0.004,0.0527,0.0003,1.0,0.0,0.7287,25.0,6
0.7295,0.0629,-0.5576,-0.1844,0.4013,0.0948,0.0002,1.0,1.0,0.6135,25.0,6
0.424,-0.1932,-0.1634,-0.2731,0.2211,-0.0187,0.0004,1.0,1.0,0.3291,25.0,6
-0.4397,-0.2457,0.0511,-0.2964,0.4487,-0.2177,0.0002,1.0,1.0,0.3375,25.0,6
-1.0,-0.6378,0.2127,-0.2236,0.445,-0.3982,0.0004,1.0,1.0,0.8033,25.0,6
-1.0,-0.1596,0.0753,0.2417,0.3365,-0.4471,0.0002,1.0,1.0,0.677,25.0,6
-0.8491,0.6961,-0.0656,-0.007,0.0778,-0.2362,0.0004,1.0,1.0,0.7333,25.0,6
-0.5082,0.1358,-0.0222,-0.2932,-0.0024,0.0824,0.0002,1.0,1.0,0.351,25.0,6
-0.267,-0.3715,-0.0681,-0.1082,-0.163,0.2047,0.0005,1.0,1.0,0.3083,25.0,6
-0.1243,-0.4411,-0.1824,-0.0394,-0.175,0.1627,0.0001,1.0,1.0,0.3288,25.0,6
-0.0618,-0.3118,-0.256,-0.0382,-0.0887,0.1089,0.0005,1.0,1.0,0.2721,25.0,6
-0.1498,-0.2973,-0.1412,-0.0344,-0.0506,0.0854,0.0001,1.0,1.0,0.2411,25.0,6
-0.3486,-0.237,0.0319,0.0326,-0.0839,0.0769,0.0005,1.0,1.0,0.2818,25.0,6
-0.3657,-0.0327,-0.0204,0.0868,-0.2919,0.1285,0.0,1.0,1.0,0.2452,25.0,6
-0.2648,-0.0667,0.0424,0.0659,-0.2842,0.2024,0.0005,1.0,0.41,0.1842,25.0,6
-0.2941,-0.211,0.0737,0.1242,-0.3279,0.2052,0.0,0.7856,0.0,0.2462,25.0,6
0.4823,0.2352,-0.1893,0.0566,-0.0028,-0.1304,0.0002,0.0004,0.0,0.3793,26.0,6
0.4684,0.27,-0.1735,-0.0275,0.1123,-0.0176,0.0003,0.0004,0.0,0.3785,26.0,6
0.298,0.1216,-0.0938,-0.0823,0.1296,0.0449,0.0002,0.0004,0.0,0.2235,26.0,6
0.2775,0.0567,-0.0322,-0.0621,0.0701,0.0546,0.0003,0.0004,0.0,0.19,26.0,6
0.2943,0.0499,-0.0422,-0.0279,0.0709,0.0161,0.0003,0.0003,0.0,0.201,26.0,6
0.1405,0.0727,-0.0137,0.0121,0.0404,0.0287,0.0002,0.0003,0.0,0.1059,26.0,6
0.1428,0.1016,-0.0312,-0.0053,-0.0298,0.0362,0.0004,0.0003,0.0,0.1187,26.0,6
0.1403,0.0931,-0.0317,-0.0004,-0.033,0.0281,0.0002,0.0004,0.0,0.1142,26.0,6
0.1476,0.065,-0.0584,0.0241,-0.0542,0.0291,0.0004,0.0002,0.0,0.1143,26.0,6
0.182,0.075,-0.0961,0.0435,-0.06,0.0418,0.0001,0.0004,0.0,0.1461,26.0,6
0.2891,0.0785,-0.1415,0.0222,-0.0469,0.0267,0.0005,0.0002,0.0,0.2209,26.0,6
0.3892,0.0877,-0.1967,0.0146,-0.0055,0.0152,0.0001,0.0004,0.0,0.2965,26.0,6
0.4647,0.1296,-0.1973,-0.0402,0.0278,0.036,0.0005,0.0001,0.0,0.3475,26.0,6
0.7882,0.0984,-0.162,-0.1298,0.073,0.0001,0.0,0.0009,0.0,0.5405,26.0,6
0.9238,0.046,-0.27,-0.1752,0.3005,-0.0295,0.0005,0.9535,0.0,0.6424,26.0,6
0.7011,-0.1325,-0.303,-0.2177,0.7544,-0.0151,0.0,1.0,1.0,0.5168,26.0,6
-0.1589,-0.1696,-0.0713,-0.1558,-0.0841,0.0071,0.0006,1.0,1.0,0.1621,26.0,6
0.5585,-0.3358,-0.6334,-0.3572,0.5137,-0.3871,0.0001,1.0,1.0,0.6058,26.0,6
-1.0,-0.3415,0.1972,0.0002,0.3739,-0.276,0.0005,1.0,1.0,0.7166,26.0,6
-1.0,0.0253,0.1806,0.0097,0.2376,-0.35,0.0001,1.0,1.0,0.6777,26.0,6
-0.9232,0.4378,-0.0657,0.2657,0.0442,-0.1542,0.0005,1.0,1.0,0.6826,26.0,6
-0.4543,0.3865,-0.1574,-0.1686,-0.105,0.1019,0.0001,1.0,1.0,0.4113,26.0,6
-0.1022,-0.4018,-0.2159,-0.2311,-0.1187,0.1559,0.0005,1.0,1.0,0.3116,26.0,6
-0.0834,-0.6434,-0.138,-0.0866,-0.0707,0.0799,0.0001,1.0,1.0,0.4422,26.0,6
-0.1769,-0.4757,-0.1669,0.1047,-0.0745,0.026,0.0005,1.0,1.0,0.3561,26.0,6
-0.262,-0.1037,-0.1724,0.0828,-0.0805,0.0009,0.0,1.0,1.0,0.2202,26.0,6
-0.352,0.0114,-0.1146,0.0126,-0.1468,0.0743,0.0005,1.0,1.0,0.2469,26.0,6
-0.4684,-0.1319,0.0036,0.0185,-0.1765,0.1799,0.0,1.0,1.0,0.3244,26.0,6
-0.4088,-0.1955,0.0101,0.0987,-0.2567,0.1711,0.0006,1.0,0.8167,0.3022,26.0,6
-0.3498,-0.2064,0.0048,0.1486,-0.3193,0.135,0.0001,0.925,0.0,0.2708,26.0,6
-0.3498,-0.2064,0.0048,0.1486,-0.3193,0.135,0.0001,0.925,0.0,0.2708,27.0,6
0.3497,0.2972,-0.0327,-0.0378,0.1153,-0.1056,0.0005,0.0003,0.0,0.3067,27.0,6
0.3413,0.2126,-0.0538,-0.0504,0.0928,-0.0672,0.0001,0.0004,0.0,0.2705,27.0,6
0.2741,0.184,0.0333,0.0002,0.0875,0.0,0.0005,0.0002,0.0,0.2212,27.0,6
0.2352,0.1241,-0.037,-0.0246,0.0166,0.0144,0.0001,0.0004,0.0,0.179,27.0,6
0.155,0.1318,-0.0361,-0.0228,-0.0147,0.0009,0.0005,0.0002,0.0,0.1378,27.0,6
0.1358,0.1407,-0.0541,0.0089,-0.0361,0.0255,0.0,0.0005,0.0,0.1352,27.0,6
0.1083,0.1098,-0.0685,0.016,-0.0107,0.0339,0.0006,0.0002,0.0,0.1125,27.0,6
0.0358,0.1188,-0.0601,0.0255,-0.0372,0.0365,0.0,0.0005,0.0,0.0919,27.0,6
0.1028,0.0811,-0.103,0.0517,-0.0448,0.045,0.0006,0.0002,0.0,0.111,27.0,6
0.2394,0.0351,-0.1727,0.0703,-0.0273,0.0536,0.0,0.0005,0.0,0.1982,27.0,6
0.4472,0.0444,-0.2296,0.0751,0.0198,0.0319,0.0006,0.0002,0.0,0.3364,27.0,6
0.7031,0.0917,-0.2542,0.0078,0.047,0.0195,0.0,0.0005,0.0,0.5022,27.0,6
0.7339,0.0381,-0.2136,-0.0634,0.0367,0.0457,0.0006,0.0004,0.0,0.5102,27.0,6
0.8539,0.0762,-0.2386,-0.0589,0.1442,0.0624,0.0,0.7046,0.0,0.5932,27.0,6
0.5457,0.0949,-0.2048,-0.1204,0.2728,0.1554,0.0006,1.0,0.8833,0.3937,27.0,6
0.2614,-0.05,-0.2574,-0.3352,0.0695,-0.0231,0.0,1.0,1.0,0.2468,27.0,6
-0.1008,-0.2538,0.084,-0.1973,0.3904,-0.1216,0.0005,1.0,1.0,0.1905,27.0,6
-0.7419,-0.1834,-0.0007,-0.2625,0.3579,-0.3879,0.0112,1.0,1.0,0.5095,27.0,6
-1.0,-0.4481,0.1098,-0.0254,0.3847,-0.366,0.0005,1.0,1.0,0.7342,27.0,6
-1.0,0.3871,0.1191,0.1269,0.1084,-0.2732,0.0001,1.0,1.0,0.7193,27.0,6
-0.4795,0.4012,-0.0511,-0.1649,-0.049,-0.0292,0.0005,1.0,1.0,0.4182,27.0,6
-0.2289,-0.0801,-0.163,-0.2405,-0.1295,0.1463,0.0001,1.0,1.0,0.1948,27.0,6
-0.1756,-0.4044,-0.1326,-0.0915,-0.1274,0.1611,0.0005,1.0,1.0,0.3069,27.0,6
-0.3246,-0.3373,-0.1295,-0.0124,-0.1721,0.1487,0.0001,1.0,1.0,0.3238,27.0,6
-0.1831,-0.2259,-0.1931,0.01,-0.147,0.1009,0.0005,1.0,1.0,0.2327,27.0,6
-0.1616,-0.1428,-0.1121,-0.0067,-0.0974,0.1019,0.0001,1.0,1.0,0.162,27.0,6
-0.2469,-0.1937,0.0391,0.0416,-0.0777,0.1188,0.0004,1.0,1.0,0.2108,27.0,6
-0.2931,-0.1253,0.069,0.0991,-0.1216,0.1118,0.0,1.0,1.0,0.2174,27.0,6
-0.3047,-0.0615,0.0043,0.1436,-0.1895,0.1413,0.0005,1.0,1.0,0.2072,27.0,6
-0.2931,-0.1253,0.069,0.0991,-0.1216,0.1118,0.0,1.0,1.0,0.2174,28.0,6
-0.3047,-0.0615,0.0043,0.1436,-0.1895,0.1413,0.0005,1.0,1.0,0.2072,28.0,6
0.2223,0.2093,-0.1111,0.0875,0.0315,-0.1532,0.0,0.0005,0.0,0.2166,28.0,6
0.3003,0.2021,-0.194,0.0652,0.0376,-0.1186,0.0006,0.0002,0.0,0.2738,28.0,6
0.3809,0.2726,-0.0936,-0.0282,0.1377,-0.0174,0.0,0.0005,0.0,0.3184,28.0,6
0.3233,0.116,0.013,-0.0535,0.1235,0.0272,0.0006,0.0002,0.0,0.2291,28.0,6
0.3026,0.1083,0.0152,0.0049,0.0674,0.044,0.0,0.0005,0.0,0.2145,28.0,6
0.2987,0.0981,-0.0229,-0.0076,0.0524,0.0348,0.0006,0.0002,0.0,0.2102,28.0,6
0.2108,0.0883,0.0062,-0.0035,0.0418,0.0322,0.0,0.0005,0.0,0.1524,28.0,6
0.1301,0.1163,-0.0054,0.0163,-0.0283,0.0615,0.0007,0.0002,0.0,0.1164,28.0,6
0.1946,0.0705,-0.0355,0.0007,-0.035,0.0532,0.0,0.0005,0.0,0.14,28.0,6
0.1027,0.0587,-0.0788,0.0453,-0.0537,0.0372,0.0006,0.0002,0.0,0.0947,28.0,6
0.131,0.0726,-0.1028,0.0538,-0.0553,0.0424,0.0,0.0008,0.0,0.1211,28.0,6
0.1707,0.1047,-0.1139,0.0571,-0.0342,0.0412,0.0006,0.0004,0.0,0.1536,28.0,6
0.2221,0.0656,-0.1379,0.0515,0.0206,0.0323,0.0,0.704,0.0,0.1797,28.0,6
0.339,0.0724,-0.1453,0.0973,0.0586,0.0125,0.0006,1.0,0.8333,0.2506,28.0,6
0.6697,0.1707,-0.202,-0.0042,0.2819,0.0729,0.0,1.0,1.0,0.48,28.0,6
0.6867,0.1176,-0.222,-0.1984,0.5853,0.1023,0.0006,1.0,1.0,0.4874,28.0,6
0.2709,-0.1031,-0.0211,-0.1916,0.3748,0.0656,0.0114,1.0,1.0,0.1937,28.0,6
0.7678,-0.1014,0.0029,-0.058,0.0379,0.1258,0.2474,1.0,1.0,0.5163,28.0,6
0.7194,-0.093,-0.2787,-0.2333,0.0737,-0.0451,0.7717,1.0,1.0,0.518,28.0,6
-0.1903,-0.324,-0.1188,-0.3686,0.2026,-0.1641,0.7224,1.0,1.0,0.2628,28.0,6
-0.6958,-0.4477,0.0541,-0.2104,0.1186,-0.2226,0.6684,1.0,1.0,0.5528,28.0,6
-1.0,-0.2628,0.0147,0.0683,0.2731,-0.5491,0.5942,1.0,1.0,0.6894,28.0,6
-1.0,0.4194,-0.0289,0.1573,0.246,-0.4029,0.485,1.0,1.0,0.7232,28.0,6
-0.7303,0.6358,-0.0307,-0.0086,-0.032,-0.0621,0.4853,1.0,1.0,0.6459,28.0,6
-0.3673,0.1099,-0.0834,-0.2521,-0.1296,0.1587,0.436,1.0,1.0,0.2616,28.0,6
-0.3236,-0.4052,-0.0882,-0.176,-0.2031,0.2205,0.4245,1.0,1.0,0.3507,28.0,6
-0.2298,-0.4645,-0.1959,-0.0402,-0.2472,0.151,0.0004,1.0,1.0,0.3694,28.0,6
-0.1663,-0.3121,-0.2166,0.0095,-0.205,0.0982,0.0005,1.0,1.0,0.2764,28.0,6
0.3463,0.2332,-0.1251,-0.026,0.1071,-0.144,0.0006,0.0002,0.0,0.2906,29.0,6
0.4047,0.1656,-0.0312,-0.1038,0.1534,-0.1173,0.0,0.0005,0.0,0.2922,29.0,6
0.33,0.1293,0.0913,-0.0459,0.1883,-0.039,0.0006,0.0002,0.0,0.244,29.0,6
0.3041,0.0597,0.0611,-0.0284,0.0916,-0.0142,0.0,0.0004,0.0,0.2106,29.0,6
0.3316,0.043,0.012,-0.0266,0.0518,-0.0152,0.0005,0.0002,0.0,0.223,29.0,6
0.2535,0.0308,0.0283,-0.022,0.0634,-0.0334,0.0,0.0005,0.0,0.1713,29.0,6
0.1423,0.0597,0.0474,0.0065,0.0283,-0.0303,0.0006,0.0002,0.0,0.1077,29.0,6
0.0952,0.1055,0.0471,0.0252,0.0006,-0.018,0.0,0.0004,0.0,0.0998,29.0,6
0.0652,0.0903,0.0413,0.0173,-0.0333,0.0148,0.0006,0.0002,0.0,0.0792,29.0,6
0.0399,0.0311,-0.0077,0.0205,-0.0513,0.019,0.0,0.0004,0.0,0.0341,29.0,6
0.0646,0.0208,-0.0311,0.0384,-0.0494,0.011,0.0005,0.0002,0.0,0.0498,29.0,6
0.0357,0.0634,-0.0291,0.0474,-0.0365,0.0106,0.0,0.0004,0.0,0.0522,29.0,6
0.1102,0.0858,-0.0447,0.0352,-0.0226,0.0314,0.0005,0.0005,0.0,0.0978,29.0,6
0.1627,0.0408,-0.0198,0.0386,0.0364,0.0383,0.0001,0.0008,0.0,0.1126,29.0,6
0.3607,0.0822,-0.07,0.0533,0.1295,0.008,0.0005,0.9302,0.2233,0.251,29.0,6
0.5248,0.1418,-0.0455,-0.0319,0.3138,0.0274,0.0001,1.0,0.9567,0.3637,29.0,6
0.5515,0.139,0.0203,-0.1189,0.4518,0.0234,0.0004,1.0,1.0,0.3794,29.0,6
0.2534,0.0746,0.17,-0.1456,0.5202,-0.0063,0.0004,1.0,1.0,0.2094,29.0,6
0.242,0.0901,0.2844,-0.0828,0.0909,0.1299,0.0005,1.0,1.0,0.2561,29.0,6
0.3849,-0.135,0.0425,-0.1673,-0.0225,0.0302,0.2971,1.0,1.0,0.2734,29.0,6
0.0142,-0.4069,-0.1539,-0.244,0.0064,-0.1466,0.6586,1.0,1.0,0.2902,29.0,6
-0.5843,-0.447,-0.2208,-0.1213,-0.0825,-0.1596,0.7011,1.0,1.0,0.5121,29.0,6
-0.9082,-0.2723,-0.2945,0.0587,0.2099,-0.257,0.0083,1.0,1.0,0.6619,29.0,6
-1.0,0.3494,-0.1581,0.0336,0.1258,-0.3415,0.0005,1.0,1.0,0.714,29.0,6
-0.677,0.3001,-0.0767,-0.1452,0.0303,-0.1075,0.0003,1.0,1.0,0.4963,29.0,6
-0.4172,-0.0399,-0.0676,-0.1806,-0.0404,0.0701,0.0006,1.0,1.0,0.283,29.0,6
-0.3409,-0.3046,-0.0881,-0.1544,-0.1373,0.1111,0.0003,1.0,1.0,0.3104,29.0,6
-0.2756,-0.456,-0.1539,-0.0726,-0.2179,0.0729,0.0006,1.0,1.0,0.3697,29.0,6
-0.0461,-0.316,-0.2014,0.0474,-0.1498,0.0154,0.0003,1.0,1.0,0.2517,29.0,6
-0.1394,-0.0928,-0.1033,0.0587,-0.0538,0.0153,0.0006,1.0,1.0,0.1312,29.0,6
0.2698,0.034,-0.0721,0.0742,0.0757,-0.0786,0.0001,0.0004,0.0,0.1875,30.0,6
0.4036,0.1498,-0.1028,0.0586,0.1309,-0.0883,0.0005,0.0002,0.0,0.2951,30.0,6
0.3544,0.1218,0.0375,-0.0392,0.1667,-0.0074,0.0001,0.0004,0.0,0.2511,30.0,6
0.3198,-0.0281,0.0853,-0.0322,0.0685,-0.0113,0.0004,0.0002,0.0,0.2215,30.0,6
0.3596,0.0367,0.0369,0.042,0.0386,-0.057,0.0002,0.0004,0.0,0.2423,30.0,6
0.2474,0.1244,0.018,0.0372,0.0275,-0.0346,0.0004,0.0003,0.0,0.185,30.0,6
0.1723,0.1186,0.0347,0.0277,-0.0165,0.0177,0.0002,0.0003,0.0,0.1413,30.0,6
0.1629,0.1282,0.0151,0.0124,-0.0482,0.0393,0.0003,0.0003,0.0,0.1385,30.0,6
0.1195,0.085,-0.0285,0.0105,-0.0456,0.0518,0.0002,0.0003,0.0,0.0996,30.0,6
0.127,0.0777,-0.0239,0.0341,-0.0508,0.0479,0.0002,0.0003,0.0,0.1005,30.0,6
0.1765,0.0936,-0.0549,0.0508,-0.0439,0.0537,0.0003,0.0003,0.0,0.1381,30.0,6
0.3112,0.0353,-0.1067,0.0601,-0.0186,0.0561,0.0002,0.0003,0.0,0.2206,30.0,6
0.4517,-0.0019,-0.1951,0.077,0.0797,-0.0029,0.0003,0.0005,0.0,0.328,30.0,6
0.6466,0.0347,-0.1754,0.0184,0.1757,0.0038,0.0001,0.3779,0.0,0.4472,30.0,6
0.6931,-0.0079,-0.1793,-0.077,0.3286,0.0297,0.0004,1.0,0.6867,0.4773,30.0,6
0.5752,-0.0659,-0.241,-0.1815,0.2374,-0.0007,0.0001,1.0,1.0,0.4181,30.0,6
0.5254,-0.2304,-0.1635,-0.1658,0.1881,-0.0311,0.0186,1.0,1.0,0.3977,30.0,6
0.4734,-0.147,-0.0451,-0.1753,0.2165,-0.0963,0.214,1.0,1.0,0.3318,30.0,6
-0.3557,-0.4183,-0.0168,-0.3835,0.2132,-0.2153,0.3633,1.0,1.0,0.3662,30.0,6
-1.0,-0.7147,-0.0328,0.092,0.4768,-0.5277,0.3564,1.0,1.0,0.8197,30.0,6
-1.0,0.3177,0.0998,0.3504,0.2793,-0.5029,0.4139,1.0,1.0,0.7027,30.0,6
-0.6506,0.6961,-0.1547,0.0752,-0.0774,-0.2396,0.4395,1.0,1.0,0.6435,30.0,6
-0.3163,0.3737,-0.102,-0.1882,-0.0128,0.0915,0.4454,1.0,1.0,0.3334,30.0,6
-0.3412,-0.0601,-0.0933,-0.1696,-0.1377,0.2555,0.4634,1.0,1.0,0.2392,30.0,6
-0.3758,-0.3126,-0.1426,-0.1143,-0.2216,0.2961,0.4377,1.0,1.0,0.3395,30.0,6
-0.3182,-0.3483,-0.2315,-0.0826,-0.2419,0.2525,0.3756,1.0,1.0,0.3504,30.0,6
-0.1158,-0.3384,-0.2742,-0.079,-0.1662,0.1687,0.2785,1.0,1.0,0.3005,30.0,6
-0.1038,-0.3311,-0.1673,-0.0234,-0.0653,0.0797,0.2671,1.0,1.0,0.2568,30.0,6
-0.2228,-0.226,-0.0301,0.0911,-0.0502,0.0752,0.0006,1.0,1.0,0.2125,30.0,6
-0.2672,-0.0539,-0.0004,0.1338,-0.1358,0.0824,0.0,1.0,0.94,0.1817,30.0,6
0.2094,0.0521,-0.1522,0.1421,-0.0624,-0.1368,0.0003,0.0005,0.0,0.176,31.0,6
0.2589,0.1298,-0.2678,0.1132,-0.1102,-0.1974,0.0003,0.0003,0.0,0.263,31.0,6
0.4993,0.2852,-0.3069,0.079,0.0298,-0.173,0.0003,0.0003,0.0,0.4345,31.0,6
0.3825,0.3266,-0.1533,-0.0321,0.1866,-0.0491,0.0002,0.0003,0.0,0.3505,31.0,6
0.2942,0.1944,-0.0413,-0.0815,0.1236,0.0292,0.0003,0.0003,0.0,0.2367,31.0,6
0.3949,0.1349,0.0373,-0.0964,0.1162,0.0595,0.0001,0.0004,0.0,0.2793,31.0,6
0.2466,0.0108,0.0853,-0.066,0.0868,0.025,0.0004,0.0003,0.0,0.1741,31.0,6
0.1586,0.055,0.0329,0.0393,-0.035,-0.024,0.0001,0.0004,0.0,0.114,31.0,6
0.1517,0.2061,-0.018,0.0653,-0.0358,-0.0348,0.0005,0.0002,0.0,0.1711,31.0,6
0.0498,0.2259,-0.063,0.0456,-0.0354,0.0292,0.0,0.0004,0.0,0.1598,31.0,6
0.0297,0.1766,-0.1031,0.0178,-0.0891,0.0704,0.0005,0.0002,0.0,0.1377,31.0,6
0.1765,0.1201,-0.1338,0.011,-0.0368,0.0692,0.0,0.0005,0.0,0.168,31.0,6
0.1094,0.0599,-0.1316,0.0498,0.0457,0.0817,0.0006,0.0004,0.0,0.1209,31.0,6
0.244,0.0984,-0.1254,0.0621,0.0093,0.0683,0.0,0.2611,0.1033,0.1943,31.0,6
0.4258,0.1092,-0.1479,-0.0053,0.197,0.0307,0.0006,1.0,0.9567,0.3092,31.0,6
0.3601,0.0822,-0.1909,-0.0837,0.3439,0.0718,0.0,1.0,1.0,0.2772,31.0,6
0.3644,0.0029,-0.0895,-0.1369,0.1045,0.0212,0.0006,1.0,1.0,0.2502,31.0,6
0.5029,-0.0797,-0.043,-0.0884,0.2411,0.0693,0.0001,1.0,1.0,0.3407,31.0,6
0.6024,-0.0986,-0.1088,-0.1176,0.0072,0.043,0.0154,1.0,1.0,0.4134,31.0,6
0.567,-0.3005,-0.1943,-0.2763,0.1203,-0.0368,0.1935,1.0,1.0,0.447,31.0,6
0.1182,-0.6245,-0.147,-0.1322,0.0792,-0.0521,0.27,1.0,1.0,0.4349,31.0,6
-0.3411,-0.0748,-0.0804,-0.0819,0.2461,-0.3119,0.2948,1.0,1.0,0.2389,31.0,6
-1.0,-0.2944,-0.0162,-0.1058,0.3665,-0.4139,0.308,1.0,1.0,0.695,31.0,6
-1.0,0.4433,0.1486,0.2829,0.2316,-0.3121,0.3143,1.0,1.0,0.7359,31.0,6
-0.6543,0.6613,0.0006,-0.1176,-0.0059,-0.1034,0.3183,1.0,1.0,0.6202,31.0,6
-0.214,0.1564,-0.1739,-0.2196,-0.0328,0.0741,0.3163,1.0,1.0,0.2113,31.0,6
-0.1788,-0.2319,-0.1419,-0.2322,0.0221,0.1202,0.3206,1.0,1.0,0.2169,31.0,6
-0.3446,-0.4356,-0.0323,-0.0838,-0.0149,0.1027,0.318,1.0,1.0,0.3709,31.0,6
-0.2244,-0.3204,-0.1033,0.0499,-0.1101,0.0401,0.3044,1.0,1.0,0.2697,31.0,6
-0.2145,-0.1091,-0.1293,0.09,-0.1735,0.0141,0.0539,1.0,1.0,0.1821,31.0,6
0.2382,0.096,-0.129,0.1025,-0.0548,-0.1232,0.0,0.0004,0.0,0.1916,32.0,6
0.3173,0.1812,-0.1374,0.0711,0.0196,-0.1256,0.0006,0.0002,0.0,0.2602,32.0,6
0.2566,0.1561,-0.1567,0.037,0.0191,-0.0853,0.0,0.0005,0.0,0.2258,32.0,6
0.3091,0.2154,-0.1454,0.0121,0.0138,-0.0626,0.0006,0.0002,0.0,0.2692,32.0,6
0.3156,0.183,-0.1202,-0.0565,0.0506,-0.0139,0.0,0.0005,0.0,0.2561,32.0,6
0.2509,0.0938,-0.0894,-0.0485,0.0679,0.0046,0.0006,0.0002,0.0,0.1882,32.0,6
0.16,0.1518,0.0071,-0.0138,0.0422,0.0061,0.0,0.0005,0.0,0.1471,32.0,6
0.1207,0.1951,0.0113,-0.0228,-0.0004,0.0238,0.0006,0.0002,0.0,0.1532,32.0,6
0.0953,0.1442,-0.0248,-0.0092,-0.0162,0.0416,0.0,0.0005,0.0,0.1164,32.0,6
0.0618,0.1442,-0.027,0.0238,-0.0251,0.0537,0.0006,0.0001,0.0,0.1061,32.0,6
0.0941,0.1375,-0.06,0.0358,-0.0296,0.0693,0.0,0.0004,0.0,0.1181,32.0,6
0.1167,0.1038,-0.076,0.0451,-0.0184,0.0623,0.0006,0.0001,0.0,0.1158,32.0,6
0.218,0.1032,-0.0959,0.0559,0.0223,0.0289,0.0,0.0005,0.0,0.1731,32.0,6
0.2788,0.0992,-0.0873,0.0332,0.0362,0.011,0.0006,0.002,0.0,0.2057,32.0,6
0.4453,0.1252,-0.1641,0.0114,0.1492,0.0003,0.0,1.0,0.54,0.3272,32.0,6
0.5726,0.063,-0.2725,-0.034,0.3662,0.0307,0.0006,1.0,1.0,0.4249,32.0,6
0.2299,0.1771,-0.0224,-0.0295,0.4382,0.0476,0.0,1.0,1.0,0.194,32.0,6
0.3043,0.2359,-0.0523,-0.1017,0.1865,0.0939,0.0191,1.0,1.0,0.2591,32.0,6
0.5689,-0.0291,-0.2079,-0.2144,0.2153,0.0288,0.0002,1.0,1.0,0.4042,32.0,6
0.2335,-0.3271,-0.1238,-0.2303,0.2465,-0.0078,0.748,1.0,1.0,0.2804,32.0,6
-0.2709,-0.4135,-0.0629,-0.1869,0.1009,-0.1149,0.8507,1.0,1.0,0.3322,32.0,6
-0.542,-0.5784,-0.2725,-0.1454,0.1248,-0.4732,0.7885,1.0,1.0,0.5588,32.0,6
-1.0,-0.09,-0.2079,0.2906,0.2433,-0.3761,0.6638,1.0,1.0,0.6836,32.0,6
-1.0,0.6961,-0.1398,0.2362,0.0427,-0.1552,0.5867,1.0,1.0,0.8176,32.0,6
-0.4498,0.4098,-0.2342,-0.2178,-0.132,0.0639,0.5723,1.0,1.0,0.4347,32.0,6
-0.1304,-0.2709,-0.2473,-0.2642,-0.139,0.1598,0.2616,1.0,1.0,0.2595,32.0,6
-0.1038,-0.5374,-0.1762,-0.151,-0.0661,0.0701,0.3125,1.0,1.0,0.3833,32.0,6
-0.1378,-0.4125,-0.1611,0.0391,-0.031,-0.0149,0.0005,1.0,1.0,0.3092,32.0,6
-0.2743,-0.1331,-0.0978,0.1116,-0.0842,0.0044,0.0004,1.0,1.0,0.2135,32.0,6
-0.3524,0.1056,-0.0593,0.0655,-0.1446,0.0171,0.0003,1.0,1.0,0.2484,32.0,6
0.3506,0.1385,-0.1081,0.1315,-0.0519,-0.097,0.0006,0.0002,0.0,0.2614,33.0,6
0.2423,0.1359,-0.144,0.1305,-0.074,-0.1067,0.0,0.0005,0.0,0.2086,33.0,6
0.3565,0.1816,-0.2527,0.1272,-0.0119,-0.1504,0.0006,0.0001,0.0,0.3155,33.0,6
0.3949,0.2891,-0.1817,0.0017,0.2064,-0.1205,0.0,0.0005,0.0,0.348,33.0,6
0.104,0.2377,-0.039,-0.0723,0.1905,-0.0024,0.0006,0.0002,0.0,0.1749,33.0,6
0.2091,0.1732,0.0349,-0.122,0.0652,0.0602,0.0,0.0005,0.0,0.1825,33.0,6
0.2501,0.0728,0.0306,-0.0826,0.0705,0.0264,0.0006,0.0002,0.0,0.1749,33.0,6
0.1025,0.0623,0.06,0.0158,0.0605,-0.009,0.0,0.0005,0.0,0.0894,33.0,6
0.0647,0.2003,0.0782,0.0445,-0.043,-0.009,0.0006,0.0002,0.0,0.1497,33.0,6
0.0896,0.1739,0.0027,0.0256,-0.0726,0.0286,0.0,0.0005,0.0,0.1304,33.0,6
0.0706,0.1779,-0.0281,0.0488,-0.0496,0.0478,0.0006,0.0002,0.0,0.129,33.0,6
0.0692,0.1755,-0.017,0.0645,-0.0299,0.0508,0.0,0.0004,0.0,0.1263,33.0,6
0.1273,0.2068,-0.014,0.0874,0.019,0.0594,0.0006,0.0004,0.0,0.1622,33.0,6
0.2578,0.1896,-0.128,0.0709,0.1086,0.0905,0.0,0.0629,0.0,0.2298,33.0,6
0.3184,0.1823,-0.1594,-0.0207,0.2669,0.1212,0.0005,0.9238,0.3333,0.2667,33.0,6
0.1434,0.0809,-0.0373,-0.0725,0.2185,0.1464,0.0001,1.0,0.99,0.1126,33.0,6
0.184,0.0723,-0.0394,-0.082,-0.0015,0.1369,0.0005,1.0,1.0,0.1344,33.0,6
0.6242,0.0149,-0.0655,-0.1513,0.1066,0.1201,0.0001,1.0,1.0,0.4185,33.0,6
0.6471,-0.1522,-0.2665,-0.2194,0.1211,0.0073,0.0463,1.0,1.0,0.4775,33.0,6
0.4822,-0.2302,-0.2121,-0.267,0.1881,-0.0102,0.2867,1.0,1.0,0.3832,33.0,6
0.249,-0.3677,-0.2953,-0.3609,0.0808,-0.1431,0.356,1.0,1.0,0.3556,33.0,6
-0.3138,-0.6313,-0.1832,-0.1706,0.4142,-0.2897,0.3574,1.0,1.0,0.4856,33.0,6
-1.0,0.0038,0.0781,-0.0156,0.1191,-0.2679,0.0004,1.0,1.0,0.6687,33.0,6
-0.9975,0.1703,-0.1136,0.0941,0.1481,-0.4045,0.0005,1.0,1.0,0.6789,33.0,6
-0.7809,0.6794,-0.1408,0.2058,0.0667,-0.0352,0.0004,1.0,1.0,0.6964,33.0,6
-0.4255,0.1364,-0.1368,-0.251,-0.0897,0.0519,0.0005,1.0,1.0,0.3115,33.0,6
-0.1691,-0.4982,-0.1553,-0.1558,-0.0905,0.0824,0.0003,1.0,1.0,0.3657,33.0,6
-0.15,-0.4305,-0.1019,-0.0073,-0.0713,0.0226,0.0005,1.0,1.0,0.3114,33.0,6
-0.1804,-0.2402,-0.1257,0.0706,-0.0843,-0.0189,0.0003,1.0,1.0,0.2171,33.0,6
-0.2746,-0.02,-0.0749,0.0444,-0.1118,0.0017,0.0005,1.0,1.0,0.1902,33.0,6
0.29,-0.0439,0.0538,-0.0469,0.0545,-0.0649,0.0006,0.0002,0.0,0.1988,34.0,6
0.225,0.0042,0.0666,-0.0992,0.0809,-0.0733,0.0,0.0005,0.0,0.1564,34.0,6
0.1942,-0.0219,0.0748,-0.0675,0.0329,-0.0828,0.0006,0.0002,0.0,0.1395,34.0,6
0.2971,-0.0226,0.0777,0.0247,0.0767,-0.0385,0.0,0.0005,0.0,0.2053,34.0,6
0.1806,0.0197,0.1153,0.0233,0.1001,-0.0278,0.0005,0.0002,0.0,0.1434,34.0,6
0.1713,0.0402,0.0988,0.015,0.0377,-0.0057,0.0,0.0004,0.0,0.1345,34.0,6
0.2398,0.0165,0.0764,-0.0153,0.0509,0.024,0.0005,0.0002,0.0,0.1681,34.0,6
0.1679,-0.0174,0.0906,-0.0496,0.0538,0.03,0.0,0.0004,0.0,0.1277,34.0,6
0.1442,-0.0546,0.109,0.013,0.0312,0.0426,0.0004,0.0002,0.0,0.1259,34.0,6
0.1217,-0.0301,0.1009,0.0485,0.0033,0.0565,0.0001,0.0004,0.0,0.1073,34.0,6
0.1547,0.0002,0.1081,0.0139,0.0043,0.0485,0.0004,0.0002,0.0,0.1258,34.0,6
0.0984,-0.0711,0.1362,0.047,0.0191,0.038,0.0001,0.0003,0.0,0.1216,34.0,6
0.0913,-0.0541,0.1198,0.1224,0.0096,0.0418,0.0004,0.0003,0.0,0.1067,34.0,6
0.1716,0.0063,0.1153,0.0997,0.0459,-0.0019,0.0002,0.0007,0.0,0.1379,34.0,6
0.2439,0.019,0.0286,0.0621,0.2134,0.0065,0.0003,0.8463,0.6567,0.1642,34.0,6
0.1332,-0.0153,-0.0346,0.0315,0.409,0.0752,0.0003,1.0,1.0,0.0923,34.0,6
-0.1832,-0.0849,0.1353,0.0525,0.0286,0.0878,0.0003,1.0,1.0,0.1621,34.0,6
0.5162,-0.0751,0.1162,0.0586,0.0095,0.0851,0.0003,1.0,1.0,0.3563,34.0,6
0.3436,-0.0356,0.0527,0.0191,0.0172,0.0619,0.0002,1.0,1.0,0.233,34.0,6
0.6379,-0.1453,0.0084,-0.0718,-0.1274,0.0449,0.0497,1.0,1.0,0.4362,34.0,6
0.5516,-0.2873,-0.1962,-0.1354,-0.1108,-0.0268,0.0507,1.0,1.0,0.4348,34.0,6
0.3252,-0.5496,-0.3279,-0.2785,0.0858,-0.2506,0.0006,1.0,1.0,0.4786,34.0,6
-0.8992,-0.4195,0.1459,0.0588,0.2523,-0.2803,0.0003,1.0,1.0,0.6686,34.0,6
-1.0,0.3187,0.1354,-0.0442,0.1411,-0.3976,0.0006,1.0,1.0,0.7055,34.0,6
-0.959,0.3036,0.1121,0.0131,0.1382,-0.154,0.0002,1.0,1.0,0.6748,34.0,6
-0.594,0.2363,0.0451,-0.1444,-0.0773,0.074,0.0006,1.0,1.0,0.4272,34.0,6
-0.2256,-0.3571,-0.1165,-0.1456,-0.1297,0.1295,0.0002,1.0,1.0,0.2921,34.0,6
-0.1144,-0.4424,-0.1675,-0.0383,-0.0997,0.0989,0.0006,1.0,1.0,0.3245,34.0,6
-0.16,-0.3986,-0.1546,0.0453,-0.0707,0.0364,0.0002,1.0,1.0,0.3043,34.0,6
-0.2175,-0.1441,-0.0906,0.058,-0.0607,0.0204,0.0007,1.0,1.0,0.1841,34.0,6
0.1127,-0.0322,-0.0471,0.1615,-0.0541,-0.0469,0.0001,0.0004,0.0,0.0842,35.0,6
0.374,0.1279,0.0273,0.0881,-0.1079,-0.0525,0.0005,0.0003,0.0,0.2642,35.0,6
0.3237,0.0285,-0.0203,0.0117,-0.0281,-0.0828,0.0001,0.0004,0.0,0.2171,35.0,6
0.3965,0.0767,-0.1111,0.0786,0.0321,-0.1115,0.0004,0.0003,0.0,0.2792,35.0,6
0.3129,0.2145,-0.0126,0.0479,0.074,-0.0452,0.0002,0.0003,0.0,0.253,35.0,6
0.3015,0.1391,0.0008,-0.0202,0.0148,0.0235,0.0003,0.0004,0.0,0.2214,35.0,6
0.3209,0.0507,-0.0345,-0.0052,0.0265,0.015,0.0003,0.0003,0.0,0.2178,35.0,6
0.2339,0.0804,0.0279,0.0036,0.0384,0.029,0.0002,0.0003,0.0,0.1659,35.0,6
0.2069,0.0613,0.0336,-0.0121,-0.032,0.0519,0.0003,0.0003,0.0,0.1456,35.0,6
0.2174,0.0533,0.023,0.0054,-0.0121,0.0195,0.0002,0.0003,0.0,0.15,35.0,6
0.1071,0.0707,0.0218,0.0537,-0.0369,0.0333,0.0004,0.0003,0.0,0.0868,35.0,6
0.2344,0.1032,-0.0215,0.085,-0.0623,0.036,0.0001,0.0004,0.0,0.1713,35.0,6
0.2835,0.1163,-0.0755,0.0472,0.0116,0.0258,0.0004,0.0004,0.0,0.2104,35.0,6
0.4957,0.0783,-0.1137,0.0355,0.1295,-0.0023,0.0001,0.0007,0.0,0.3431,35.0,6
0.5473,-0.0059,-0.1534,-0.0025,0.3207,0.0163,0.0005,0.9188,0.5433,0.3789,35.0,6
0.244,0.0189,-0.1082,-0.0219,0.4264,0.0558,0.0001,1.0,1.0,0.1784,35.0,6
0.3261,0.0677,0.0148,-0.1276,-0.119,0.0608,0.0005,1.0,1.0,0.2222,35.0,6
0.5794,-0.2464,-0.1858,-0.1761,0.1252,0.0158,0.0101,1.0,1.0,0.4376,35.0,6
0.4235,-0.2292,-0.1813,-0.1497,0.161,-0.1199,0.0782,1.0,1.0,0.343,35.0,6
-0.2096,-0.2458,-0.0346,-0.2449,0.1159,-0.1532,0.2115,1.0,1.0,0.2166,35.0,6
-0.3219,-0.4271,-0.1534,-0.0872,0.2562,-0.1754,0.0007,1.0,1.0,0.3709,35.0,6
-1.0,-0.0632,0.0178,0.1007,0.3041,-0.3869,0.0002,1.0,1.0,0.6681,35.0,6
-0.9755,0.4771,0.0938,-0.0345,0.0796,-0.324,0.0007,1.0,1.0,0.7266,35.0,6
-0.6392,0.3663,0.0943,-0.0453,0.0344,-0.0041,0.0002,1.0,1.0,0.4951,35.0,6
-0.4443,-0.0028,-0.1233,-0.1685,-0.1524,0.178,0.0007,1.0,1.0,0.3074,35.0,6
0.03,-0.5225,-0.2529,-0.1879,-0.1345,0.1631,0.0002,1.0,1.0,0.3875,35.0,6
-0.051,-0.5812,-0.1044,0.0018,-0.0182,0.0626,0.0006,1.0,1.0,0.3952,35.0,6
-0.1702,-0.2641,-0.0162,0.1365,-0.0079,-0.0271,0.0001,1.0,1.0,0.2097,35.0,6
-0.2408,0.0334,-0.0173,0.1399,-0.0211,-0.0366,0.0005,1.0,1.0,0.1625,35.0,6
-0.3143,0.1757,0.0876,0.0802,-0.0384,0.0752,0.0,1.0,1.0,0.2471,35.0,6
0.1469,-0.0738,-0.1568,0.1216,-0.0904,-0.011,0.0003,0.0003,0.0,0.1514,36.0,6
0.2505,-0.0521,-0.273,0.1382,-0.0753,-0.0859,0.0004,0.0003,0.0,0.2494,36.0,6
0.3103,0.0789,-0.2466,0.0807,0.0127,-0.1212,0.0002,0.0004,0.0,0.2694,36.0,6
0.2488,0.1417,-0.2087,0.0311,0.0656,-0.1426,0.0005,0.0002,0.0,0.2362,36.0,6
0.2767,0.2186,-0.1597,0.0045,0.0957,-0.0723,0.0001,0.0004,0.0,0.2581,36.0,6
0.3016,0.1684,-0.0922,-0.0628,0.1132,-0.0111,0.0005,0.0002,0.0,0.2384,36.0,6
0.2405,0.076,-0.059,-0.0753,0.0997,-0.0125,0.0,0.0004,0.0,0.1727,36.0,6
0.2608,0.1347,-0.0097,-0.018,0.0651,-0.0263,0.0005,0.0002,0.0,0.1958,36.0,6
0.202,0.192,0.006,-0.0047,0.0411,-0.0306,0.0,0.0004,0.0,0.1858,36.0,6
0.1336,0.2118,-0.0268,0.0181,-0.0087,-0.0088,0.0006,0.0002,0.0,0.1679,36.0,6
0.1184,0.2285,-0.0836,0.0428,-0.0248,0.0162,0.0,0.0005,0.0,0.1804,36.0,6
0.1515,0.2613,-0.0812,0.0362,-0.0149,0.0457,0.0006,0.0002,0.0,0.2085,36.0,6
0.1239,0.1686,-0.1149,0.0084,-0.0142,0.0834,0.0,0.0008,0.0,0.1592,36.0,6
0.2393,0.0616,-0.1198,0.0117,0.0527,0.0664,0.0006,0.0199,0.0,0.1831,36.0,6
0.2644,0.0538,-0.2009,0.043,0.2198,0.0604,0.0,0.9634,0.94,0.2243,36.0,6
0.2004,0.0867,-0.1763,-0.0065,0.273,0.0859,0.0006,1.0,1.0,0.1871,36.0,6
0.3104,0.1358,-0.1871,-0.1053,0.1712,0.0305,0.0,1.0,1.0,0.258,36.0,6
0.3831,0.1208,-0.123,-0.1887,0.2414,0.008,0.0006,1.0,1.0,0.28,36.0,6
0.3655,0.0456,0.0588,-0.1474,0.0427,0.0846,0.002,1.0,1.0,0.2487,36.0,6
0.5255,-0.0438,-0.0196,-0.2065,-0.0467,0.0734,0.0707,1.0,1.0,0.3518,36.0,6
0.4755,-0.1505,-0.1343,-0.2767,0.08,-0.0599,0.2249,1.0,1.0,0.3443,36.0,6
-0.3547,-0.1962,0.0358,-0.2142,0.0895,-0.0664,0.0007,1.0,1.0,0.2713,36.0,6
-0.6936,-0.1621,-0.0053,-0.0489,0.1879,-0.1494,0.0002,1.0,1.0,0.4749,36.0,6
-0.8689,0.1113,-0.0312,0.0751,0.1322,-0.2838,0.0005,1.0,1.0,0.5844,36.0,6
-0.652,0.306,-0.0938,0.0049,0.067,-0.1806,0.0003,1.0,1.0,0.4842,36.0,6
-0.371,0.2046,-0.1529,-0.12,0.0512,0.03,0.0006,1.0,1.0,0.3003,36.0,6
-0.3129,-0.1393,-0.1036,-0.1776,-0.0067,0.1079,0.0003,1.0,1.0,0.2385,36.0,6
-0.2425,-0.3994,-0.076,-0.0891,-0.0778,0.0921,0.0006,1.0,1.0,0.3156,36.0,6
-0.0976,-0.3621,-0.1462,0.0477,-0.0968,0.0482,0.0002,1.0,1.0,0.2684,36.0,6
-0.1085,-0.1741,-0.0904,0.0853,-0.0519,0.0167,0.0005,1.0,1.0,0.1495,36.0,6
0.3024,0.0337,-0.2014,0.0943,-0.0364,-0.1137,0.0,0.0005,0.0,0.2432,37.0,6
0.2887,0.1126,-0.2487,0.0795,-0.0318,-0.1222,0.0006,0.0002,0.0,0.2649,37.0,6
0.3385,0.1711,-0.2463,0.0008,0.0034,-0.1283,0.0,0.0005,0.0,0.3015,37.0,6
0.2959,0.1508,-0.1651,-0.029,0.0602,-0.057,0.0006,0.0001,0.0,0.2473,37.0,6
0.241,0.127,-0.1288,-0.0099,0.0374,-0.0143,0.0,0.0005,0.0,0.2009,37.0,6
0.2669,0.1734,-0.1236,-0.0437,0.0445,-0.0259,0.0006,0.0001,0.0,0.2276,37.0,6
0.166,0.1087,-0.0462,-0.0518,0.0669,-0.0069,0.0,0.0005,0.0,0.1358,37.0,6
0.1292,0.1347,-0.0196,0.0061,0.0241,-0.0009,0.0006,0.0001,0.0,0.1251,37.0,6
0.1171,0.167,-0.0496,0.0065,-0.0039,0.0047,0.0,0.0005,0.0,0.14,37.0,6
0.1091,0.141,-0.0964,0.009,-0.0215,0.0256,0.0006,0.0001,0.0,0.1351,37.0,6
0.1299,0.1107,-0.115,0.0211,-0.0204,0.0268,0.0,0.0005,0.0,0.1372,37.0,6
0.1576,0.1324,-0.1168,0.0396,-0.0198,0.0308,0.0006,0.0002,0.0,0.1578,37.0,6
0.1932,0.1121,-0.1371,0.0534,0.0484,0.0117,0.0,0.0008,0.0,0.1748,37.0,6
0.2147,0.1667,-0.1331,0.0704,0.0085,0.0467,0.0006,0.4534,0.0,0.2018,37.0,6
0.3504,0.097,-0.1631,0.03,0.0661,0.0492,0.0,0.9794,0.9167,0.2656,37.0,6
0.5418,0.2193,-0.1717,0.0084,0.2358,0.0618,0.0006,1.0,1.0,0.4061,37.0,6
0.2097,0.2153,-0.2149,-0.1254,0.4028,0.074,0.0,1.0,1.0,0.2463,37.0,6
0.2459,0.138,0.0179,-0.0639,0.0454,0.1295,0.0005,1.0,1.0,0.1883,37.0,6
0.7163,0.1082,-0.1229,-0.1348,0.0054,0.1317,0.1953,1.0,1.0,0.4899,37.0,6
0.8768,-0.2603,-0.4033,-0.2702,0.1177,0.0364,0.2764,1.0,1.0,0.6664,37.0,6
0.1333,-0.4859,-0.1432,-0.2177,0.1102,-0.0115,0.0003,1.0,1.0,0.3492,37.0,6
-0.123,-0.4927,-0.1979,-0.0927,0.2008,-0.257,0.0005,1.0,1.0,0.3634,37.0,6
-0.8934,-0.1243,-0.0337,-0.0009,0.3509,-0.4155,0.0003,1.0,1.0,0.6018,37.0,6
-1.0,0.2883,0.0733,0.0977,0.2309,-0.3904,0.0005,1.0,1.0,0.6955,37.0,6
-0.7539,0.4969,0.0944,-0.0144,0.0354,-0.1609,0.0004,1.0,1.0,0.6052,37.0,6
-0.3597,0.2216,-0.0561,-0.1161,-0.0874,0.0802,0.0004,1.0,1.0,0.2841,37.0,6
-0.1582,-0.0461,-0.1671,-0.153,-0.1051,0.1765,0.0006,1.0,1.0,0.1564,37.0,6
-0.2073,-0.3577,-0.1039,-0.1463,-0.1091,0.1602,0.3276,1.0,1.0,0.2842,37.0,6
-0.1888,-0.3697,-0.1177,-0.0058,-0.1586,0.0947,0.311,1.0,1.0,0.2877,37.0,6
-0.0331,-0.1772,-0.1464,0.0371,-0.0945,0.0232,0.1192,1.0,1.0,0.1548,37.0,6
0.1643,-0.0602,-0.0851,0.0006,0.0344,-0.0606,0.0,0.0005,0.0,0.1297,38.0,6
0.1648,-0.0596,-0.0812,0.0998,-0.0408,-0.0891,0.0006,0.0002,0.0,0.1288,38.0,6
0.4016,0.0699,-0.1423,0.0142,0.0019,-0.1191,0.0,0.0005,0.0,0.2878,38.0,6
0.3611,0.02,-0.1556,0.0276,0.0465,-0.1618,0.0006,0.0002,0.0,0.2625,38.0,6
0.3546,0.1824,-0.1036,0.0865,0.0652,-0.1861,0.0,0.0005,0.0,0.2747,38.0,6
0.3427,0.2914,-0.0735,0.029,0.0608,-0.1049,0.0006,0.0002,0.0,0.3039,38.0,6
0.3098,0.1915,-0.1048,-0.0159,0.0561,-0.0128,0.0,0.0004,0.0,0.2527,38.0,6
0.2848,0.1385,-0.0643,-0.0324,0.0547,0.013,0.0006,0.0002,0.0,0.2154,38.0,6
0.172,0.1163,0.0226,-0.0414,0.0507,0.0329,0.0,0.0004,0.0,0.1392,38.0,6
0.1094,0.0998,0.0331,-0.0193,0.0035,0.0336,0.0005,0.0002,0.0,0.1012,38.0,6
0.0631,0.1423,0.0247,0.0313,-0.0147,0.0169,0.0,0.0004,0.0,0.1051,38.0,6
0.09,0.1325,-0.02,0.0468,-0.0467,0.0554,0.0005,0.0002,0.0,0.1076,38.0,6
0.1797,0.1081,-0.037,0.0664,-0.0058,0.0547,0.0001,0.0006,0.0,0.142,38.0,6
0.3153,0.1232,-0.1201,0.0413,0.1271,0.0282,0.0004,0.0006,0.0,0.2395,38.0,6
0.2467,0.0375,-0.1442,-0.0163,0.3175,0.0477,0.0002,0.7465,0.4533,0.1922,38.0,6
-0.0121,0.0165,-0.0794,0.0085,0.1624,0.082,0.0004,1.0,1.0,0.0547,38.0,6
0.4789,0.1191,-0.0828,-0.024,0.0952,0.0594,0.0003,1.0,1.0,0.3336,38.0,6
0.4439,0.1002,-0.0776,-0.0689,0.1827,0.0104,0.0003,1.0,1.0,0.3077,38.0,6
0.3538,0.1352,0.0294,-0.0351,0.025,0.0869,0.0003,1.0,1.0,0.2532,38.0,6
0.489,0.0312,-0.0369,-0.1647,-0.084,0.0942,0.0286,1.0,1.0,0.3276,38.0,6
0.5182,-0.2663,-0.1952,-0.2421,-0.0733,0.0196,0.0005,1.0,1.0,0.4096,38.0,6
-0.0243,-0.4338,-0.148,-0.2414,0.0506,-0.0939,0.0003,1.0,1.0,0.306,38.0,6
-0.4839,-0.5081,-0.0442,-0.0337,0.2068,-0.3247,0.0006,1.0,1.0,0.4687,38.0,6
-1.0,0.228,0.0612,0.2233,0.3018,-0.4259,0.0003,1.0,1.0,0.685,38.0,6
-0.9925,0.6961,0.1017,0.1373,0.0511,-0.1265,0.0006,1.0,1.0,0.811,38.0,6
-0.4585,0.3674,-0.1054,-0.1939,-0.0937,0.1408,0.0002,1.0,1.0,0.3979,38.0,6
-0.1636,-0.2651,-0.195,-0.213,-0.0915,0.2284,0.0006,1.0,1.0,0.245,38.0,6
-0.0702,-0.5532,-0.118,-0.1359,-0.0681,0.1532,0.0002,1.0,1.0,0.38,38.0,6
-0.0168,-0.5316,-0.1368,0.0252,-0.0736,0.0015,0.0006,1.0,1.0,0.3661,38.0,6
-0.0131,-0.2337,-0.1501,0.1176,-0.015,-0.0961,0.0,1.0,1.0,0.1854,38.0,6
0.1484,0.0152,-0.0026,0.0472,-0.048,-0.0265,0.0005,0.0002,0.0,0.0995,39.0,6
0.2455,-0.0292,-0.0429,0.0477,-0.0308,-0.0762,0.0001,0.0004,0.0,0.1673,39.0,6
0.2894,-0.0006,-0.1274,0.0918,-0.0309,-0.1126,0.0004,0.0003,0.0,0.2108,39.0,6
0.3096,0.0825,-0.1371,0.0937,-0.0002,-0.1471,0.0001,0.0004,0.0,0.2323,39.0,6
0.32,0.1498,-0.1059,0.0341,0.0038,-0.1247,0.0004,0.0003,0.0,0.2459,39.0,6
0.2876,0.1077,-0.122,0.0133,0.0093,-0.0972,0.0002,0.0003,0.0,0.2203,39.0,6
0.2875,0.1651,-0.1042,0.0408,0.0195,-0.0655,0.0003,0.0003,0.0,0.2317,39.0,6
0.2517,0.1841,-0.0773,-0.0377,0.0381,-0.0162,0.0003,0.0003,0.0,0.2142,39.0,6
0.166,0.1347,-0.016,-0.0595,0.0478,0.0026,0.0002,0.0004,0.0,0.1429,39.0,6
0.093,0.1497,0.0357,-0.0063,0.0159,0.02,0.0004,0.0003,0.0,0.1199,39.0,6
0.1133,0.211,0.0534,-0.0006,-0.0107,0.024,0.0001,0.0004,0.0,0.1636,39.0,6
0.1211,0.1423,-0.001,0.0115,-0.0109,0.0167,0.0004,0.0002,0.0,0.1246,39.0,6
0.0895,0.0982,-0.0784,0.0568,0.0381,0.0653,0.0001,0.0005,0.0,0.1029,39.0,6
0.2597,0.1242,-0.0679,0.0491,0.0343,0.0188,0.0005,0.0001,0.0,0.1972,39.0,6
0.3773,0.1274,-0.1555,0.0184,0.2158,0.0307,0.0,0.7581,0.7633,0.285,39.0,6
0.2437,0.1161,-0.1085,-0.0029,0.3131,0.0924,0.0005,1.0,1.0,0.1939,39.0,6
0.2568,0.1922,-0.0126,-0.0707,0.0754,0.0775,0.0,1.0,1.0,0.214,39.0,6
0.5219,0.0947,-0.1644,-0.0583,0.0918,0.102,0.0026,1.0,1.0,0.3702,39.0,6
0.4763,0.0727,-0.0455,-0.101,0.0706,0.0945,0.2233,1.0,1.0,0.3227,39.0,6
0.2605,-0.1141,-0.0259,-0.1365,0.0645,0.037,0.118,1.0,1.0,0.1904,39.0,6
0.1747,-0.1635,-0.1702,-0.1882,-0.0852,0.0112,0.0002,1.0,1.0,0.1958,39.0,6
0.0414,-0.5169,-0.2719,-0.2483,0.2318,-0.1913,0.0007,1.0,1.0,0.3904,39.0,6
-1.0,-0.4711,0.0209,0.0772,0.3063,-0.3797,0.0002,1.0,1.0,0.7371,39.0,6
-1.0,0.5193,0.077,0.1623,0.126,-0.352,0.0007,1.0,1.0,0.753,39.0,6
-0.7374,0.6961,-0.0497,-0.0071,0.0364,-0.0112,0.0002,1.0,1.0,0.6768,39.0,6
-0.4807,0.0794,-0.1629,-0.2861,-0.1202,0.2591,0.0006,1.0,1.0,0.3425,39.0,6
0.0349,-0.7719,-0.2294,-0.2395,-0.1382,0.1792,0.0002,1.0,1.0,0.5374,39.0,6
-0.1064,-0.7076,-0.0961,0.0905,-0.0494,0.0496,0.0006,1.0,1.0,0.4813,39.0,6
-0.1925,-0.1945,-0.1185,0.2001,-0.0795,-0.0228,0.0002,1.0,1.0,0.1988,39.0,6
-0.1879,0.0883,-0.1324,0.0806,-0.1455,-0.0097,0.0006,1.0,1.0,0.1641,39.0,6
0.257,0.1679,-0.1208,0.0671,-0.0456,-0.1142,0.0004,0.0002,0.0,0.2199,40.0,6
0.3281,0.1266,-0.1695,0.0053,-0.0234,-0.0799,0.0001,0.0004,0.0,0.2603,40.0,6
0.3389,0.0926,-0.1929,0.0158,0.0329,-0.109,0.0005,0.0003,0.0,0.2672,40.0,6
0.2654,0.1569,-0.1179,0.0325,0.0605,-0.1059,0.0,0.0004,0.0,0.22,40.0,6
0.264,0.212,-0.0768,0.0008,0.0141,-0.0488,0.0006,0.0002,0.0,0.2315,40.0,6
0.3057,0.1895,-0.0801,-0.0479,0.0364,-0.0167,0.0,0.0005,0.0,0.2456,40.0,6
0.1476,0.1745,0.0101,-0.0443,0.0537,0.0015,0.0006,0.0002,0.0,0.1525,40.0,6
0.0869,0.1762,0.0261,-0.0059,-0.0136,0.0307,0.0,0.0005,0.0,0.1321,40.0,6
0.1051,0.1965,-0.0174,-0.0021,0.0006,0.0391,0.0006,0.0002,0.0,0.149,40.0,6
0.0137,0.1489,-0.0396,-0.0347,-0.0061,0.0852,0.0,0.0005,0.0,0.1031,40.0,6
0.0857,0.0757,-0.0302,-0.0197,-0.0312,0.0934,0.0006,0.0001,0.0,0.0789,40.0,6
0.1231,0.0458,-0.0533,0.0041,0.0105,0.0422,0.0,0.0007,0.0,0.0945,40.0,6
0.2511,0.0638,-0.1291,0.0365,0.1462,0.0261,0.0007,0.0002,0.0,0.193,40.0,6
0.3284,0.0936,-0.1382,0.033,0.3411,-0.0255,0.0,0.5653,0.0,0.2456,40.0,6
0.1397,0.2789,-0.1299,-0.0858,0.4826,0.0256,0.0006,1.0,0.7433,0.2252,40.0,6
0.0813,0.1397,0.0042,-0.1245,0.0368,0.0921,0.0,1.0,1.0,0.1078,40.0,6
0.6576,0.0685,0.0714,-0.0786,0.1143,0.1027,0.0264,1.0,1.0,0.4433,40.0,6
0.2327,0.0992,0.105,-0.0143,0.1087,0.1093,0.2149,1.0,1.0,0.1826,40.0,6
0.4149,0.0429,0.0323,-0.0843,-0.1212,0.1059,0.2824,1.0,1.0,0.2789,40.0,6
0.4579,-0.2379,-0.2267,-0.18,-0.1372,0.0427,0.0002,1.0,1.0,0.3757,40.0,6
0.1675,-0.4166,-0.2503,-0.2343,-0.0819,-0.0576,0.0006,1.0,1.0,0.3427,40.0,6
-0.2666,-0.5091,-0.1216,-0.1644,0.1257,-0.221,0.0002,1.0,1.0,0.3916,40.0,6
-1.0,-0.3179,0.1568,-0.0065,0.3651,-0.4948,0.0006,1.0,1.0,0.7073,40.0,6
-1.0,0.3538,0.3856,0.1568,0.1164,-0.3935,0.0002,1.0,1.0,0.7524,40.0,6
-0.4607,0.5871,-0.0645,0.156,-0.1358,-0.0836,0.0006,1.0,1.0,0.4994,40.0,6
-0.2102,0.3875,-0.2808,-0.1051,-0.0926,0.2185,0.0003,1.0,1.0,0.3485,40.0,6
-0.1433,-0.2587,-0.2432,-0.3023,-0.061,0.2844,0.0005,1.0,1.0,0.2553,40.0,6
-0.1233,-0.7105,-0.1495,-0.1657,-0.0704,0.1725,0.0003,1.0,1.0,0.491,40.0,6
0.0391,-0.5205,-0.1883,0.0919,-0.0316,0.0156,0.0005,1.0,1.0,0.3699,40.0,6
-0.104,-0.1319,-0.1414,0.1092,0.0038,-0.0763,0.0003,1.0,1.0,0.1464,40.0,6
0.249,0.1711,-0.1213,0.054,0.0226,-0.1164,0.0006,0.0002,0.0,0.217,41.0,6
0.3048,0.1061,-0.0524,-0.0138,0.0222,-0.0824,0.0,0.0005,0.0,0.218,41.0,6
0.3109,0.0872,-0.0519,0.0258,0.026,-0.0926,0.0006,0.0002,0.0,0.218,41.0,6
0.2683,0.1376,-0.0385,0.0494,0.0494,-0.0772,0.0,0.0005,0.0,0.2027,41.0,6
0.2194,0.1817,0.0121,-0.0121,0.0289,-0.037,0.0006,0.0002,0.0,0.1901,41.0,6
0.145,0.138,0.0294,-0.029,0.0267,-0.0114,0.0,0.0005,0.0,0.1349,41.0,6
0.0498,0.1335,0.0433,0.0009,0.0337,0.0096,0.0006,0.0002,0.0,0.0993,41.0,6
0.0311,0.1356,0.0162,-0.0066,-0.0094,0.0412,0.0,0.0005,0.0,0.0933,41.0,6
0.0534,0.0655,-0.0486,-0.0277,-0.0186,0.0539,0.0006,0.0002,0.0,0.065,41.0,6
0.0783,0.0132,-0.0407,-0.0137,0.0144,0.0462,0.0,0.0004,0.0,0.0595,41.0,6
0.0527,0.024,-0.0187,0.0318,0.0279,0.0177,0.0006,0.0002,0.0,0.0406,41.0,6
0.0171,0.0837,-0.0292,0.0436,-0.0013,0.0151,0.0,0.0004,0.0,0.0602,41.0,6
0.1795,0.0514,-0.0253,0.0359,0.01,0.0065,0.0006,0.0002,0.0,0.1256,41.0,6
0.3008,0.0558,-0.097,0.0561,0.118,-0.0267,0.0,0.0006,0.0,0.214,41.0,6
0.2327,0.1047,-0.0867,0.0476,0.2427,-0.0053,0.0005,0.7449,0.32,0.1796,41.0,6
0.1958,0.1844,0.0037,-0.0188,0.0915,0.0405,0.0001,1.0,1.0,0.1793,41.0,6
0.5642,0.1612,-0.0912,-0.0856,0.238,0.0771,0.0005,1.0,1.0,0.3959,41.0,6
0.2395,0.1456,-0.0093,-0.074,0.3248,0.0595,0.0001,1.0,1.0,0.187,41.0,6
0.1326,0.2383,0.1097,-0.0351,-0.0581,0.1133,0.0004,1.0,1.0,0.196,41.0,6
0.5477,0.0534,-0.1833,-0.1812,-0.0366,0.1128,0.0219,1.0,1.0,0.3867,41.0,6
0.5315,-0.2976,-0.368,-0.2419,0.0175,0.0216,0.0391,1.0,1.0,0.4744,41.0,6
-0.0652,-0.4398,-0.1232,-0.1137,0.1925,-0.0739,0.122,1.0,1.0,0.3076,41.0,6
-0.6429,-0.0865,-0.0042,-0.1896,0.2724,-0.2942,0.2394,1.0,1.0,0.4325,41.0,6
-1.0,-0.1894,0.1369,0.0261,0.2966,-0.3915,0.0005,1.0,1.0,0.6846,41.0,6
-1.0,0.6961,0.0869,0.2837,0.0236,-0.0441,0.0004,1.0,1.0,0.8143,41.0,6
-0.4265,0.2233,-0.2442,-0.1292,-0.1456,0.1439,0.0005,1.0,1.0,0.3599,41.0,6
-0.0806,-0.3646,-0.3759,-0.1136,-0.1099,0.2006,0.0003,1.0,1.0,0.3532,41.0,6
0.0158,-0.5609,-0.2308,-0.0877,-0.0309,0.0905,0.0006,1.0,1.0,0.4045,41.0,6
-0.0909,-0.4848,-0.1054,0.0752,0.0032,-0.049,0.0001,1.0,1.0,0.3363,41.0,6
-0.2118,-0.0964,-0.079,0.1395,-0.001,-0.093,0.0005,1.0,1.0,0.1638,41.0,6
0.1683,0.0926,-0.0501,0.0657,-0.0242,-0.0133,0.0,0.0004,0.0,0.1324,42.0,6
0.3248,0.0377,-0.1747,0.0645,-0.0403,-0.0448,0.0005,0.0002,0.0,0.2472,42.0,6
0.3838,0.0186,-0.1777,0.0667,0.0241,-0.0492,0.0,0.0004,0.0,0.2822,42.0,6
0.3562,0.0961,-0.1358,0.0341,0.028,-0.0502,0.0004,0.0002,0.0,0.2621,42.0,6
0.4463,0.0359,-0.1324,0.0262,0.0489,-0.031,0.0001,0.0004,0.0,0.3113,42.0,6
0.3115,0.1316,-0.0626,-0.0085,0.0664,0.0029,0.0004,0.0003,0.0,0.2293,42.0,6
0.2594,0.0691,-0.044,-0.0321,0.0096,0.0248,0.0001,0.0004,0.0,0.1814,42.0,6
0.2527,0.0746,-0.0154,-0.0155,0.009,0.0131,0.0004,0.0003,0.0,0.176,42.0,6
0.1549,0.064,0.0034,0.0188,-0.0162,0.0142,0.0002,0.0004,0.0,0.1118,42.0,6
0.1437,0.1307,-0.013,0.0355,-0.0516,0.0187,0.0003,0.0003,0.0,0.1298,42.0,6
0.1151,0.1711,-0.0012,0.0322,-0.0642,0.032,0.0003,0.0003,0.0,0.1375,42.0,6
0.1013,0.137,-0.0587,0.0423,-0.0933,0.0609,0.0002,0.0003,0.0,0.1202,42.0,6
0.2953,0.0822,-0.1346,0.0741,-0.0459,0.0268,0.0004,0.0003,0.0,0.2232,42.0,6
0.3984,0.1133,-0.1988,0.1017,0.1107,-0.0304,0.0001,0.0007,0.0,0.3063,42.0,6
0.5469,0.1226,-0.2584,-0.0128,0.3807,0.0077,0.0004,0.8733,0.4433,0.4114,42.0,6
0.1014,-0.0267,-0.2536,-0.0384,0.3844,0.0155,0.0001,1.0,1.0,0.183,42.0,6
0.6129,0.1673,-0.1513,-0.0424,0.1442,-0.0785,0.0005,1.0,1.0,0.4354,42.0,6
0.4635,0.0624,-0.2112,-0.1463,0.3967,-0.0425,0.0002,1.0,1.0,0.3421,42.0,6
0.1453,0.0735,0.0629,-0.1739,0.0954,0.0772,0.0006,1.0,1.0,0.1164,42.0,6
0.1849,-0.3951,-0.144,-0.2777,0.0111,-0.1344,0.0002,1.0,1.0,0.3063,42.0,6
-0.4947,-0.0854,0.049,-0.0552,0.2216,-0.2253,0.0006,1.0,1.0,0.3363,42.0,6
-0.5809,-0.3322,-0.0744,-0.1262,0.1345,-0.1175,0.0002,1.0,1.0,0.4489,42.0,6
-1.0,-0.2388,-0.0706,0.147,0.2214,-0.3764,0.0007,1.0,1.0,0.687,42.0,6
-0.9101,0.4094,-0.1695,0.2575,0.0704,-0.2719,0.0002,1.0,1.0,0.6748,42.0,6
-0.4134,0.4567,-0.2719,-0.0339,-0.0655,-0.1029,0.0007,1.0,1.0,0.4489,42.0,6
-0.3879,0.0408,-0.1818,-0.1829,-0.0218,0.0397,0.0002,1.0,1.0,0.2869,42.0,6
-0.3512,-0.1909,-0.0721,-0.0951,-0.0978,0.1193,0.0006,1.0,1.0,0.2708,42.0,6
-0.2264,-0.1557,-0.1702,-0.0729,-0.1389,0.1314,0.0001,1.0,1.0,0.2155,42.0,6
-0.1572,-0.2178,-0.1943,-0.0963,-0.1147,0.0994,0.0006,1.0,1.0,0.221,42.0,6
-0.2363,-0.2386,-0.1163,-0.0475,-0.0724,0.0801,0.0001,1.0,1.0,0.2369,42.0,6
0.1033,0.0132,-0.1076,0.234,-0.22,0.0399,0.0002,0.0003,0.0,0.0998,43.0,6
0.3922,0.1574,-0.1597,0.1779,-0.1155,-0.0217,0.0003,0.0003,0.0,0.3012,43.0,6
0.2479,0.0591,-0.2347,0.1,-0.0738,-0.0787,0.0002,0.0004,0.0,0.231,43.0,6
0.3418,0.1086,-0.3185,0.1194,-0.0384,-0.136,0.0004,0.0003,0.0,0.3198,43.0,6
0.393,0.2618,-0.2066,0.041,0.0774,-0.0993,0.0002,0.0004,0.0,0.3436,43.0,6
0.2891,0.1752,-0.1677,-0.0437,0.0962,-0.0322,0.0005,0.0003,0.0,0.2516,43.0,6
0.38,0.1804,-0.09,-0.096,0.111,-0.0165,0.0001,0.0004,0.0,0.2868,43.0,6
0.2293,0.0956,-0.0042,-0.1325,0.1283,-0.0124,0.0005,0.0002,0.0,0.1656,43.0,6
0.0924,0.1132,0.0196,-0.0267,0.0187,-0.0323,0.0,0.0004,0.0,0.0983,43.0,6
0.1342,0.2541,-0.028,0.0388,-0.0253,-0.0744,0.0006,0.0002,0.0,0.1925,43.0,6
0.0919,0.2847,-0.1076,0.0241,-0.0113,-0.0028,0.0,0.0005,0.0,0.212,43.0,6
-0.0096,0.2359,-0.0971,0.0023,-0.0362,0.0665,0.0006,0.0002,0.0,0.1702,43.0,6
0.1473,0.1785,-0.1266,0.0012,-0.0642,0.0499,0.0,0.0009,0.0,0.1759,43.0,6
0.0944,0.1257,-0.1999,0.027,0.0168,0.0576,0.0006,0.0004,0.0,0.1695,43.0,6
0.2195,0.1349,-0.2042,0.0041,0.0459,0.0465,0.0,0.7392,0.72,0.2192,43.0,6
0.2854,0.054,-0.2089,-0.0561,0.1596,0.0422,0.0006,1.0,1.0,0.2385,43.0,6
0.4243,-0.0026,-0.1889,-0.1243,0.2797,0.029,0.0,1.0,1.0,0.3097,43.0,6
0.252,-0.0891,-0.0895,-0.0947,0.2687,-0.0188,0.0006,1.0,1.0,0.1879,43.0,6
0.4412,0.0114,-0.0004,-0.0057,0.041,-0.0259,0.0534,1.0,1.0,0.2942,43.0,6
0.6692,0.319,-0.0596,0.0468,0.1556,-0.0816,0.2257,1.0,1.0,0.4958,43.0,6
-0.025,0.4666,0.1771,-0.1279,0.0977,0.0156,0.3313,1.0,1.0,0.3331,43.0,6
0.3496,0.0075,-0.0821,-0.3853,-0.0419,-0.0533,0.0006,1.0,1.0,0.2395,43.0,6
0.026,-0.7497,-0.2067,-0.2736,0.2116,-0.2747,0.0002,1.0,1.0,0.5187,43.0,6
-0.9866,-0.5768,-0.1646,0.1662,0.2298,-0.3662,0.0006,1.0,1.0,0.7697,43.0,6
-1.0,0.0178,-0.3517,0.2257,0.1886,-0.527,0.0002,1.0,1.0,0.7068,43.0,6
-0.78,0.5463,-0.3444,0.1249,0.101,-0.3619,0.0005,1.0,1.0,0.6751,43.0,6
-0.5027,0.4503,-0.0866,-0.1561,0.0344,-0.0815,0.0003,1.0,1.0,0.4536,43.0,6
-0.3191,-0.0443,-0.08,-0.1657,-0.1155,0.1016,0.0005,1.0,1.0,0.2213,43.0,6
-0.1761,-0.185,-0.2149,-0.0881,-0.1539,0.1598,0.0003,1.0,1.0,0.2225,43.0,6
-0.2548,-0.2492,-0.2353,-0.0347,-0.1079,0.1568,0.0005,1.0,1.0,0.2847,43.0,6
0.3024,0.0456,-0.0888,0.0173,-0.0151,-0.0006,0.0,0.0005,0.0,0.2123,44.0,6
0.2095,-0.0541,-0.1152,0.0409,-0.0436,-0.0595,0.0006,0.0002,0.0,0.1634,44.0,6
0.3574,0.0781,-0.1808,0.0826,-0.0515,-0.0999,0.0,0.0005,0.0,0.2721,44.0,6
0.3624,0.0812,-0.1494,0.0067,0.0335,-0.1076,0.0007,0.0002,0.0,0.2669,44.0,6
0.2438,0.0428,-0.1144,0.0189,0.0247,-0.1497,0.0,0.0005,0.0,0.1818,44.0,6
0.2199,0.1973,-0.1275,0.0981,-0.034,-0.1416,0.0006,0.0001,0.0,0.2145,44.0,6
0.2554,0.3265,-0.1611,0.0113,-0.0053,-0.0875,0.0,0.0005,0.0,0.2965,44.0,6
0.1973,0.2628,-0.137,-0.0438,0.0362,0.004,0.0006,0.0002,0.0,0.2373,44.0,6
0.1649,0.2022,-0.1165,-0.0239,0.0248,0.0361,0.0,0.0005,0.0,0.1905,44.0,6
0.1773,0.1911,-0.0981,0.0031,0.0247,0.0449,0.0006,0.0002,0.0,0.1857,44.0,6
0.11,0.1939,-0.0436,-0.0215,-0.0098,0.0656,0.0,0.0005,0.0,0.1514,44.0,6
0.1884,0.1008,-0.1053,-0.0019,-0.0418,0.054,0.0006,0.0002,0.0,0.1588,44.0,6
0.2146,0.1087,-0.1252,0.0515,0.0249,0.0118,0.0,0.0008,0.0,0.1808,44.0,6
0.2949,0.1634,-0.1428,0.0424,0.0754,-0.015,0.0006,0.5859,0.0,0.2441,44.0,6
0.4131,0.1401,-0.2189,-0.008,0.3364,-0.0138,0.0,1.0,0.7,0.3254,44.0,6
0.1679,0.2137,-0.0944,-0.0464,0.2109,0.0616,0.0005,1.0,1.0,0.1918,44.0,6
0.5702,0.1768,-0.1609,-0.148,0.2958,-0.0165,0.0001,1.0,1.0,0.4122,44.0,6
0.3157,0.0425,0.0411,-0.0605,0.1887,0.0506,0.0005,1.0,1.0,0.2141,44.0,6
0.4008,0.2197,0.1033,-0.0815,0.0925,-0.0098,0.0002,1.0,1.0,0.3124,44.0,6
0.3596,0.0123,-0.0832,-0.351,0.0606,-0.0742,0.0004,1.0,1.0,0.2462,44.0,6
0.0189,-0.5867,-0.0805,-0.3051,0.0453,-0.1096,0.0003,1.0,1.0,0.395,44.0,6
-0.4354,-0.565,-0.1656,-0.046,0.1948,-0.2446,0.0004,1.0,1.0,0.4882,44.0,6
-1.0,-0.3054,-0.1894,0.2432,0.225,-0.4888,0.0003,1.0,1.0,0.7084,44.0,6
-1.0,0.6076,-0.2858,0.2511,0.0613,-0.3284,0.0002,1.0,1.0,0.803,44.0,6
-0.4534,0.685,-0.2099,-0.0735,-0.0132,-0.0101,0.0004,1.0,1.0,0.5652,44.0,6
-0.292,0.046,-0.1523,-0.2066,-0.0889,0.1775,0.0003,1.0,1.0,0.2217,44.0,6
-0.1841,-0.3199,-0.1744,-0.159,-0.1307,0.2053,0.0004,1.0,1.0,0.2721,44.0,6
-0.1579,-0.4121,-0.1879,-0.0507,-0.0946,0.133,0.0002,1.0,1.0,0.3198,44.0,6
-0.1298,-0.2414,-0.2204,-0.0026,-0.0661,0.072,0.0004,1.0,1.0,0.2345,44.0,6
-0.2263,-0.1763,-0.1462,0.0224,-0.0514,0.0211,0.0001,1.0,1.0,0.2147,44.0,6
0.1334,0.046,0.0137,0.0394,0.1151,-0.068,0.0006,0.0002,0.0,0.0945,45.0,6
0.12,0.0457,-0.0327,0.0704,0.051,-0.1176,0.0,0.0005,0.0,0.0883,45.0,6
0.2999,0.2057,-0.0576,0.0626,0.0582,-0.1187,0.0006,0.0002,0.0,0.2455,45.0,6
0.2398,0.1911,-0.0241,0.0113,0.0454,-0.1122,0.0,0.0004,0.0,0.205,45.0,6
0.189,0.2056,-0.0541,0.0574,0.0044,-0.1172,0.0006,0.0002,0.0,0.1896,45.0,6
0.2427,0.3119,-0.0563,0.0593,0.0289,-0.081,0.0,0.0005,0.0,0.2661,45.0,6
0.1707,0.2935,-0.0303,0.0134,0.0359,-0.0121,0.0005,0.0002,0.0,0.2273,45.0,6
0.0668,0.2288,-0.0435,0.0039,-0.0026,0.0323,0.0001,0.0004,0.0,0.1615,45.0,6
0.0817,0.1711,-0.0651,0.0145,-0.0505,0.0486,0.0005,0.0002,0.0,0.1336,45.0,6
0.0763,0.1858,-0.0954,0.021,-0.0384,0.0557,0.0001,0.0003,0.0,0.1483,45.0,6
0.0414,0.1675,-0.0626,0.0071,-0.0059,0.0594,0.0004,0.0002,0.0,0.1224,45.0,6
-0.0738,0.1536,-0.0613,0.0401,-0.0644,0.0521,0.0002,0.0003,0.0,0.1208,45.0,6
0.1128,0.1566,-0.1037,0.0645,-0.0485,0.0375,0.0003,0.0006,0.0,0.146,45.0,6
0.0828,0.1437,-0.1733,0.0783,0.0445,0.0652,0.0002,0.0007,0.0,0.1599,45.0,6
0.0994,0.1345,-0.1562,0.0107,0.0881,0.0802,0.0003,0.712,0.5533,0.1525,45.0,6
0.2201,0.0862,-0.1674,-0.03,0.0531,0.0808,0.0003,1.0,1.0,0.1931,45.0,6
0.3611,0.0119,-0.1921,-0.0522,0.1481,0.0578,0.0002,1.0,1.0,0.2728,45.0,6
0.4469,0.0184,-0.1197,-0.057,0.1427,0.0297,0.0004,1.0,1.0,0.3087,45.0,6
0.5178,0.0622,-0.0037,-0.0717,0.1107,-0.0253,0.0002,1.0,1.0,0.3477,45.0,6
0.4468,0.0267,-0.0637,-0.0927,0.1015,0.0251,0.0006,1.0,1.0,0.3014,45.0,6
0.5051,0.0058,-0.0945,-0.1891,0.092,0.0188,0.0003,1.0,1.0,0.3426,45.0,6
0.1154,-0.3289,0.0244,-0.2519,0.1603,-0.1057,0.0006,1.0,1.0,0.2329,45.0,6
-0.2405,-0.3731,-0.0582,-0.0338,0.0635,-0.1093,0.0002,1.0,1.0,0.2985,45.0,6
-0.6307,-0.1993,-0.1882,-0.0784,0.072,-0.4322,0.0006,1.0,1.0,0.4585,45.0,6
-0.7687,-0.0805,-0.2733,0.194,0.1902,-0.349,0.0002,1.0,1.0,0.5465,45.0,6
-0.78,0.684,-0.1625,0.1404,0.1298,-0.2299,0.0006,1.0,1.0,0.7001,45.0,6
-0.5557,0.381,-0.0773,-0.2229,-0.0235,-0.0463,0.0002,1.0,1.0,0.4521,45.0,6
-0.1753,-0.086,-0.1138,-0.1612,-0.0511,0.0965,0.0006,1.0,1.0,0.1507,45.0,6
-0.1894,-0.2022,-0.1016,-0.0311,-0.0644,0.1037,0.0002,1.0,1.0,0.1968,45.0,6
-0.178,-0.1091,-0.1629,-0.0093,-0.094,0.0383,0.0006,1.0,1.0,0.1765,45.0,6
0.2094,0.0815,-0.0543,0.1664,-0.0321,-0.0476,0.0003,0.0003,0.0,0.1541,46.0,6
0.1141,0.0853,-0.119,0.1519,-0.0457,-0.0804,0.0003,0.0003,0.0,0.1237,46.0,6
0.2571,0.1642,-0.2205,0.1213,-0.0581,-0.0896,0.0004,0.0003,0.0,0.251,46.0,6
0.5086,0.1556,-0.2292,0.0176,0.0591,-0.0263,0.0002,0.0004,0.0,0.3861,46.0,6
0.4323,0.0662,-0.1577,-0.0514,0.1361,-0.0373,0.0004,0.0003,0.0,0.3099,46.0,6
0.3087,0.1077,-0.0305,-0.0583,0.0978,-0.0402,0.0001,0.0004,0.0,0.2189,46.0,6
0.3147,0.0815,-0.0491,-0.0285,0.035,-0.0484,0.0005,0.0002,0.0,0.2192,46.0,6
0.2537,0.1246,-0.1147,0.0085,0.021,-0.0537,0.0001,0.0004,0.0,0.2033,46.0,6
0.1482,0.1496,-0.1346,-0.0135,0.0035,-0.0343,0.0005,0.0002,0.0,0.1666,46.0,6
0.1107,0.1846,-0.1378,-0.0162,-0.0257,-0.0156,0.0,0.0004,0.0,0.1704,46.0,6
0.083,0.2114,-0.1182,-0.0122,-0.0232,-0.0114,0.0005,0.0002,0.0,0.1707,46.0,6
0.0903,0.1946,-0.1531,0.0185,0.0052,-0.0007,0.0,0.0004,0.0,0.1757,46.0,6
0.1248,0.2029,-0.1838,0.0462,0.0319,0.0227,0.0006,0.0003,0.0,0.2006,46.0,6
0.2727,0.1509,-0.1971,-0.0037,0.1425,0.0315,0.0,0.0009,0.0,0.2459,46.0,6
0.3663,0.0323,-0.191,-0.0256,0.3602,-0.0248,0.0006,0.7309,0.4767,0.2763,46.0,6
-0.0461,0.1445,-0.1077,0.0414,0.3779,0.0366,0.0,0.9821,1.0,0.124,46.0,6
0.1515,0.2189,0.0283,-0.0817,0.0273,0.0599,0.0006,1.0,1.0,0.1785,46.0,6
0.476,0.0394,-0.0579,-0.12,0.1189,0.0309,0.0,1.0,1.0,0.3207,46.0,6
0.4822,0.0173,-0.0117,-0.0489,0.0572,-0.0304,0.0005,1.0,1.0,0.3218,46.0,6
0.2764,0.0696,0.0811,-0.156,0.0407,-0.0774,0.0001,1.0,1.0,0.1976,46.0,6
0.1419,-0.1724,-0.0384,-0.2407,-0.0427,-0.0732,0.0005,1.0,1.0,0.151,46.0,6
-0.146,-0.5817,-0.1989,-0.2022,0.0566,-0.2725,0.0001,1.0,1.0,0.4213,46.0,6
-0.9869,-0.3779,-0.15,0.1734,0.2676,-0.4004,0.0005,1.0,1.0,0.7116,46.0,6
-1.0,0.4168,-0.0428,0.1392,0.1381,-0.4256,0.0001,1.0,1.0,0.7228,46.0,6
-0.6169,0.5516,-0.2352,0.0327,-0.0269,-0.2013,0.0005,1.0,1.0,0.5735,46.0,6
-0.486,0.3941,-0.1486,-0.0663,-0.0366,0.1113,0.0001,1.0,1.0,0.4287,46.0,6
-0.3569,0.0219,-0.2116,-0.1755,-0.1464,0.2382,0.0005,1.0,1.0,0.277,46.0,6
-0.1885,-0.2994,-0.2226,-0.2189,-0.149,0.2437,0.0001,1.0,1.0,0.2786,46.0,6
-0.0986,-0.498,-0.2271,-0.0954,-0.0772,0.1656,0.0005,1.0,1.0,0.3708,46.0,6
-0.0312,-0.3444,-0.1674,-0.0064,-0.0096,0.0524,0.0001,1.0,1.0,0.2562,46.0,6
0.3274,0.0208,-0.244,0.0822,0.0003,-0.1648,0.0,0.0005,0.0,0.2726,47.0,6
0.3608,0.144,-0.2365,0.0951,0.0288,-0.1729,0.0007,0.0002,0.0,0.3032,47.0,6
0.4213,0.284,-0.1982,0.0442,0.0906,-0.1192,0.0,0.0005,0.0,0.3636,47.0,6
0.3745,0.2809,-0.1163,-0.0512,0.166,-0.014,0.0006,0.0001,0.0,0.3216,47.0,6
0.2868,0.241,0.0364,-0.1353,0.1368,0.0556,0.0,0.0005,0.0,0.2509,47.0,6
0.2149,0.0983,0.0766,-0.1032,0.0482,0.0427,0.0006,0.0002,0.0,0.1656,47.0,6
0.2306,0.1097,0.0046,0.0165,-0.0005,0.0047,0.0,0.0005,0.0,0.1703,47.0,6
0.1419,0.2093,-0.0021,0.0327,-0.0136,0.0112,0.0006,0.0001,0.0,0.1686,47.0,6
0.1242,0.1523,-0.058,0.0234,-0.0626,0.0497,0.0,0.0004,0.0,0.1366,47.0,6
0.2031,0.0956,-0.1094,0.0537,-0.0628,0.0402,0.0006,0.0001,0.0,0.1665,47.0,6
0.236,0.0967,-0.1192,0.0656,-0.0335,0.0244,0.0,0.0004,0.0,0.1877,47.0,6
0.2791,0.1043,-0.1884,0.0584,-0.0168,-0.0002,0.0006,0.0002,0.0,0.235,47.0,6
0.4716,0.1635,-0.2447,0.0467,0.0122,-0.0127,0.0,0.0007,0.0,0.3706,47.0,6
0.5233,0.2343,-0.2803,-0.0147,0.1147,0.0134,0.0006,0.0005,0.0,0.4255,47.0,6
0.4649,0.1663,-0.2203,-0.0735,0.1201,0.0137,0.0,0.9823,0.9267,0.3604,47.0,6
0.8005,0.095,-0.2801,-0.0958,0.3713,0.0827,0.0005,1.0,1.0,0.569,47.0,6
-0.1981,-0.0915,-0.1862,-0.1224,0.3004,-0.0289,0.0,1.0,1.0,0.1912,47.0,6
0.2212,-0.1686,-0.076,-0.298,0.0061,-0.2265,0.0005,1.0,1.0,0.1922,47.0,6
-0.2898,-0.4888,-0.2099,-0.14,0.1937,-0.2628,0.0001,1.0,1.0,0.4039,47.0,6
-0.9441,-0.1372,-0.196,0.0275,0.2839,-0.401,0.0004,1.0,1.0,0.6493,47.0,6
-0.9078,0.127,-0.1414,0.0209,0.1192,-0.3632,0.0002,1.0,1.0,0.6183,47.0,6
-0.6584,0.4837,0.0145,0.0576,0.0889,-0.1156,0.0004,1.0,1.0,0.5448,47.0,6
-0.3041,0.2817,-0.0756,-0.1125,-0.0732,0.0633,0.0003,1.0,1.0,0.2809,47.0,6
-0.0793,-0.1574,-0.1719,-0.1437,-0.0822,0.1329,0.0004,1.0,1.0,0.1642,47.0,6
-0.1291,-0.2986,-0.1453,-0.0581,-0.055,0.1041,0.0003,1.0,1.0,0.2376,47.0,6
-0.1826,-0.1518,-0.1264,-0.0179,-0.0495,0.0477,0.0003,1.0,1.0,0.1793,47.0,6
-0.1864,-0.0667,-0.1177,-0.0434,-0.0568,0.0274,0.0003,1.0,1.0,0.1536,47.0,6
-0.2512,-0.045,-0.043,0.0108,-0.0418,0.0482,0.0002,1.0,1.0,0.1725,47.0,6
-0.3624,0.0502,0.0174,0.0594,-0.0476,0.1279,0.0003,1.0,1.0,0.2442,47.0,6
-0.3385,0.0464,-0.0998,0.074,-0.15,0.1481,0.0001,1.0,1.0,0.2373,47.0,6
0.3787,0.0237,-0.142,0.0223,-0.0039,-0.0855,0.0006,0.0001,0.0,0.2701,48.0,6
0.3689,0.0909,-0.1548,0.0351,-0.0242,-0.1471,0.0,0.0005,0.0,0.2735,48.0,6
0.4274,0.2122,-0.087,-0.006,0.0453,-0.1193,0.0006,0.0002,0.0,0.3234,48.0,6
0.3092,0.1342,-0.0882,0.0023,0.0427,-0.0632,0.0,0.0005,0.0,0.2323,48.0,6
0.271,0.1923,-0.1064,0.0135,0.0075,-0.0502,0.0006,0.0002,0.0,0.2326,48.0,6
0.2504,0.2338,-0.0895,-0.044,0.0262,-0.0276,0.0,0.0004,0.0,0.2361,48.0,6
0.1587,0.1636,-0.0469,-0.0381,0.0209,-0.0033,0.0005,0.0002,0.0,0.1552,48.0,6
0.084,0.18,-0.049,0.0247,-0.0193,0.0094,0.0,0.0004,0.0,0.1364,48.0,6
0.1085,0.1861,-0.0848,0.0098,-0.0455,0.0281,0.0005,0.0002,0.0,0.1543,48.0,6
0.1115,0.1089,-0.1343,0.0043,-0.0425,0.0386,0.0,0.0004,0.0,0.1372,48.0,6
0.0966,0.1186,-0.1303,0.033,-0.0343,0.0369,0.0004,0.0002,0.0,0.1339,48.0,6
0.1128,0.1513,-0.1223,0.0221,-0.0465,0.0365,0.0001,0.0004,0.0,0.1499,48.0,6
0.1727,0.1202,-0.1396,0.0274,-0.0313,0.0151,0.0004,0.0003,0.0,0.1683,48.0,6
0.1054,0.1221,-0.1569,0.0799,-0.01,0.0145,0.0002,0.0005,0.0,0.15,48.0,6
0.2789,0.1522,-0.1321,0.0605,0.069,0.0183,0.0004,0.9919,0.68,0.2294,48.0,6
0.255,0.1414,-0.1236,0.0068,0.2427,0.0169,0.0002,1.0,1.0,0.2111,48.0,6
0.1886,0.1271,-0.0739,0.0038,0.0402,0.007,0.0003,1.0,1.0,0.1594,48.0,6
0.5548,0.2199,-0.2868,0.0179,0.0977,0.0419,0.0005,1.0,1.0,0.4414,48.0,6
0.7323,0.2723,-0.2888,-0.074,0.1114,0.0251,0.0024,1.0,1.0,0.5553,48.0,6
0.5319,0.0772,-0.1454,-0.2072,0.0832,0.0778,0.0012,1.0,1.0,0.3712,48.0,6
0.9266,-0.3907,-0.2681,-0.291,-0.0227,0.0007,0.0017,1.0,1.0,0.6938,48.0,6
-0.0359,-0.8076,-0.0765,-0.1877,0.1935,-0.136,0.0004,1.0,1.0,0.5413,48.0,6
-0.7223,-0.2702,0.144,-0.0307,0.1975,-0.3631,0.0002,1.0,1.0,0.523,48.0,6
-1.0,0.0687,-0.1363,0.0879,0.2763,-0.5141,0.0005,1.0,1.0,0.6744,48.0,6
-1.0,0.6961,-0.015,0.216,0.1021,-0.158,0.0001,1.0,1.0,0.8123,48.0,6
-0.5405,0.4669,-0.126,-0.1251,-0.0684,0.1124,0.0005,1.0,1.0,0.4835,48.0,6
-0.3194,-0.1068,-0.2398,-0.2515,-0.1363,0.2322,0.0001,1.0,1.0,0.2756,48.0,6
-0.1274,-0.3876,-0.2469,-0.1409,-0.125,0.2154,0.0005,1.0,1.0,0.3179,48.0,6
-0.0496,-0.4141,-0.2505,-0.0165,-0.1026,0.1485,0.0001,1.0,1.0,0.3244,48.0,6
-0.003,-0.3178,-0.2131,0.0058,-0.0441,0.0558,0.0005,1.0,1.0,0.2551,48.0,6
0.1964,0.0179,0.0843,-0.0675,0.093,-0.0387,0.0002,0.0004,0.0,0.143,49.0,6
0.152,0.0159,0.0663,0.0356,0.035,-0.0796,0.0005,0.0003,0.0,0.1111,49.0,6
0.173,0.2243,0.0678,0.0767,0.0315,-0.0474,0.0002,0.0004,0.0,0.1942,49.0,6
0.189,0.2139,0.066,-0.0208,0.0228,0.0075,0.0003,0.0003,0.0,0.1953,49.0,6
0.1654,0.1035,0.0882,0.0123,0.0247,0.0268,0.0002,0.0003,0.0,0.1427,49.0,6
0.1663,0.1755,0.1205,0.0183,-0.0145,0.0506,0.0003,0.0003,0.0,0.1801,49.0,6
0.2017,0.0618,0.0722,0.0036,-0.0402,0.0523,0.0003,0.0003,0.0,0.1486,49.0,6
0.1835,0.0778,0.0327,0.0664,-0.0411,0.048,0.0002,0.0004,0.0,0.1346,49.0,6
0.1749,0.116,-0.0014,0.0633,-0.0679,0.0579,0.0003,0.0003,0.0,0.1399,49.0,6
0.2063,0.1025,-0.0319,0.0416,-0.0669,0.0629,0.0001,0.0004,0.0,0.155,49.0,6
0.2238,0.1091,-0.0561,0.0496,-0.0304,0.0763,0.0004,0.0002,0.0,0.1701,49.0,6
0.1837,0.136,-0.0235,0.0552,-0.0179,0.079,0.0001,0.0004,0.0,0.1532,49.0,6
0.3112,0.2201,-0.0408,0.0074,-0.0455,0.1133,0.0005,0.0002,0.0,0.2556,49.0,6
0.5385,0.1944,-0.0619,-0.0358,0.0674,0.1189,0.0,0.0008,0.0,0.3839,49.0,6
0.7002,-0.0994,-0.1448,0.0044,0.3131,0.1246,0.0005,0.76,0.4567,0.4813,49.0,6
0.1692,-0.22,-0.2787,-0.1077,0.4039,0.0352,0.0,1.0,1.0,0.2622,49.0,6
-0.0762,-0.2184,-0.034,-0.1524,-0.0737,-0.1204,0.0006,1.0,1.0,0.1559,49.0,6
-0.1059,-0.4571,-0.1966,-0.183,0.1207,-0.2312,0.0001,1.0,1.0,0.3392,49.0,6
-0.5831,-0.2491,-0.1597,-0.0255,0.1673,-0.3223,0.0007,1.0,1.0,0.4359,49.0,6
-0.7478,0.0562,-0.0689,0.142,0.0696,-0.2882,0.0001,1.0,1.0,0.502,49.0,6
-0.6053,0.4872,-0.1177,0.1428,-0.0458,-0.108,0.0006,1.0,1.0,0.524,49.0,6
-0.4183,0.3411,-0.2061,-0.071,-0.0505,0.1069,0.0001,1.0,1.0,0.3852,49.0,6
-0.3622,-0.0117,-0.2812,-0.1816,-0.0904,0.1995,0.0006,1.0,1.0,0.3058,49.0,6
-0.1672,-0.3057,-0.1935,-0.1604,-0.0837,0.2107,0.0001,1.0,1.0,0.2657,49.0,6
-0.1887,-0.389,-0.0453,-0.0445,-0.0546,0.158,0.0005,1.0,1.0,0.2898,49.0,6
-0.1896,-0.3218,0.0305,0.0914,-0.0942,0.0469,0.0,1.0,1.0,0.2498,49.0,6
-0.1456,-0.0707,0.0288,0.185,-0.114,0.0006,0.0005,1.0,1.0,0.1096,49.0,6
-0.274,-0.006,0.0886,0.1856,-0.2185,0.0367,0.0,1.0,0.9033,0.192,49.0,6
-0.1528,0.0218,-0.0623,0.1638,-0.4239,-0.0302,0.0006,0.9182,0.0,0.111,49.0,6
0.1732,0.0425,-0.186,0.1163,-0.4318,-0.0825,0.0,0.433,0.0,0.1718,49.0,6
-0.1456,-0.0707,0.0288,0.185,-0.114,0.0006,0.0005,1.0,1.0,0.1096,50.0,6
-0.274,-0.006,0.0886,0.1856,-0.2185,0.0367,0.0,1.0,0.9033,0.192,50.0,6
-0.1528,0.0218,-0.0623,0.1638,-0.4239,-0.0302,0.0006,0.9182,0.0,0.111,50.0,6
0.1732,0.0425,-0.186,0.1163,-0.4318,-0.0825,0.0,0.433,0.0,0.1718,50.0,6
0.2512,0.279,-0.0152,-0.0078,0.0487,-0.0082,0.0004,0.0003,0.0,0.2505,50.0,6
0.1401,0.1998,-0.0191,-0.0374,0.0261,0.0318,0.0002,0.0004,0.0,0.1632,50.0,6
0.1079,0.1141,-0.063,0.0016,-0.0365,0.0266,0.0004,0.0003,0.0,0.1128,50.0,6
0.1733,0.1612,-0.0616,0.018,-0.017,0.0288,0.0001,0.0004,0.0,0.1631,50.0,6
0.0864,0.1113,-0.0507,-0.0074,-0.0253,0.0447,0.0005,0.0002,0.0,0.0998,50.0,6
0.0972,0.0225,-0.081,0.0267,-0.0613,0.023,0.0001,0.0004,0.0,0.0857,50.0,6
0.1244,0.1115,-0.0729,0.0856,-0.0162,0.0075,0.0005,0.0002,0.0,0.1215,50.0,6
0.0919,0.1664,-0.1148,0.054,-0.0339,0.0345,0.0,0.0005,0.0,0.1481,50.0,6
0.1932,0.1047,-0.1,0.003,-0.0142,0.0452,0.0006,0.0004,0.0,0.161,50.0,6
0.2296,0.0742,-0.0738,0.0478,0.0745,0.0395,0.0,0.4147,0.12,0.1682,50.0,6
0.1101,0.1473,-0.0972,0.0802,0.0932,0.0537,0.0006,0.9926,0.93,0.1387,50.0,6
0.3073,0.1703,-0.1443,0.0165,0.0854,0.0748,0.0,1.0,1.0,0.2532,50.0,6
0.4823,0.0826,-0.1664,-0.0376,0.3592,0.057,0.0006,1.0,1.0,0.3446,50.0,6
0.2572,0.0712,-0.128,-0.0478,0.1809,0.0229,0.0,1.0,1.0,0.1973,50.0,6
0.7044,0.0876,-0.0793,-0.1217,-0.0044,0.0326,0.0006,1.0,1.0,0.4761,50.0,6
0.9535,0.0275,-0.1631,-0.2013,0.0998,0.0233,0.0,1.0,1.0,0.6452,50.0,6
0.1868,-0.3655,-0.0165,-0.2908,0.0548,0.023,0.0005,1.0,1.0,0.2739,50.0,6
0.1268,-0.384,-0.0668,-0.2777,0.0322,-0.0942,0.0001,1.0,1.0,0.2732,50.0,6
-0.4811,-0.2921,0.0417,-0.0014,0.218,-0.2348,0.0005,1.0,1.0,0.3762,50.0,6
-1.0,0.4881,0.1022,0.0365,0.1002,-0.2774,0.0001,1.0,1.0,0.745,50.0,6
-0.6178,0.2892,-0.0167,-0.1064,0.0396,-0.1777,0.0005,1.0,1.0,0.4549,50.0,6
-0.4668,0.1421,-0.0617,-0.0001,0.0163,-0.0421,0.0001,1.0,1.0,0.3279,50.0,6
-0.2593,0.0543,-0.1003,-0.0483,-0.0548,0.0725,0.0005,1.0,1.0,0.1888,50.0,6
-0.1007,-0.2049,-0.1207,-0.0767,-0.0662,0.1066,0.0001,1.0,1.0,0.1722,50.0,6
-0.0334,-0.2917,-0.1262,0.0036,-0.0191,0.0634,0.0006,1.0,1.0,0.213,50.0,6
-0.0809,-0.1177,-0.0661,-0.0009,-0.0147,0.033,0.0001,1.0,1.0,0.1049,50.0,6
0.0856,-0.0394,-0.0753,0.0603,-0.078,0.0199,0.0,0.0005,0.0,0.0804,51.0,6
0.3096,-0.0248,-0.1249,0.0981,-0.0498,-0.0571,0.0006,0.0002,0.0,0.2232,51.0,6
0.2777,0.0466,-0.1348,0.1187,-0.0335,-0.0901,0.0,0.0005,0.0,0.2081,51.0,6
0.2911,0.1636,-0.1667,0.0625,-0.032,-0.1518,0.0006,0.0002,0.0,0.2488,51.0,6
0.3837,0.1452,-0.171,0.0212,0.0325,-0.1351,0.0,0.0005,0.0,0.2963,51.0,6
0.2979,0.1933,-0.1318,0.0178,0.1232,-0.0368,0.0006,0.0002,0.0,0.2525,51.0,6
0.2011,0.1412,-0.0787,-0.0359,0.1183,0.009,0.0,0.0005,0.0,0.172,51.0,6
0.1766,0.1091,-0.0301,-0.0162,0.1303,0.0192,0.0006,0.0002,0.0,0.1398,51.0,6
0.085,0.1556,0.0433,-0.0017,0.1152,0.0388,0.0,0.0005,0.0,0.1216,51.0,6
0.1387,0.1364,0.0465,-0.0021,0.0788,0.0468,0.0006,0.0002,0.0,0.1333,51.0,6
0.1099,0.0867,0.0284,-0.0182,0.0178,0.05,0.0,0.0005,0.0,0.0952,51.0,6
0.1589,0.0355,0.0091,0.0012,-0.0236,0.0132,0.0006,0.0001,0.0,0.1087,51.0,6
0.1692,0.1109,0.0198,0.07,0.0002,-0.0085,0.0,0.0009,0.0,0.1355,51.0,6
0.1942,0.1793,-0.041,0.0649,0.0083,-0.0219,0.0006,0.4633,0.0,0.1783,51.0,6
0.3115,0.1476,-0.0687,0.0411,0.149,-0.0329,0.0,1.0,0.9133,0.2343,51.0,6
0.1564,0.1387,-0.1097,0.0598,0.2656,0.0308,0.0006,1.0,1.0,0.1574,51.0,6
0.2888,0.2458,-0.046,-0.0304,0.07,0.0881,0.0,1.0,1.0,0.2547,51.0,6
0.609,0.132,-0.0706,-0.1657,0.1019,0.0984,0.0005,1.0,1.0,0.4181,51.0,6
0.6209,0.0326,-0.1038,-0.1649,0.1634,0.0187,0.0,1.0,1.0,0.4202,51.0,6
0.3849,-0.0385,0.0014,-0.1696,0.1352,-0.0397,0.0005,1.0,1.0,0.2579,51.0,6
0.1181,-0.2475,0.0052,-0.2694,-0.0786,-0.0402,0.0001,1.0,1.0,0.1828,51.0,6
0.0249,-0.4763,-0.1729,-0.2369,-0.0034,-0.1554,0.0004,1.0,1.0,0.3382,51.0,6
-0.5526,-0.3961,-0.0866,-0.0619,0.0822,-0.2576,0.0001,1.0,1.0,0.4569,51.0,6
-0.9709,-0.2141,-0.0865,0.0279,0.076,-0.4076,0.0004,1.0,1.0,0.6653,51.0,6
-0.8352,0.197,-0.179,0.2339,0.0674,-0.3506,0.0002,1.0,1.0,0.5844,51.0,6
-0.56,0.607,-0.2177,0.0887,0.0042,-0.106,0.0004,1.0,1.0,0.5694,51.0,6
-0.3738,0.2083,-0.1589,-0.1707,-0.0594,0.1202,0.0003,1.0,1.0,0.3043,51.0,6
-0.2273,-0.1779,-0.1494,-0.1699,-0.0942,0.1777,0.0004,1.0,1.0,0.2167,51.0,6
-0.0665,-0.3283,-0.1475,-0.0566,-0.073,0.1438,0.0002,1.0,1.0,0.244,51.0,6
-0.0713,-0.2648,-0.1226,-0.0004,-0.0396,0.0695,0.0003,1.0,1.0,0.2003,51.0,6
0.0476,0.0292,-0.0867,0.0909,-0.0706,0.0405,0.0007,0.0002,0.0,0.0688,52.0,6
0.1754,-0.0262,-0.2344,0.1355,-0.067,-0.0261,0.0,0.0004,0.0,0.196,52.0,6
0.26,0.0816,-0.1984,0.1057,0.0279,-0.0132,0.0007,0.0002,0.0,0.2247,52.0,6
0.2019,0.011,-0.2212,0.0232,0.0337,-0.0424,0.0,0.0005,0.0,0.1998,52.0,6
0.3208,0.1008,-0.1614,0.0435,0.0773,-0.0666,0.0006,0.0002,0.0,0.2487,52.0,6
0.2803,0.0965,-0.0933,-0.0154,0.1005,-0.0339,0.0,0.0005,0.0,0.2072,52.0,6
0.2418,0.0854,-0.0554,-0.0051,0.0739,-0.0367,0.0006,0.0001,0.0,0.1749,52.0,6
0.2426,0.174,0.007,-0.0018,0.0398,-0.0249,0.0,0.0005,0.0,0.1991,52.0,6
0.2218,0.1607,-0.0097,-0.0163,0.0382,-0.0258,0.0006,0.0002,0.0,0.1827,52.0,6
0.1209,0.1996,-0.0053,0.0122,0.0159,-0.0172,0.0,0.0004,0.0,0.1556,52.0,6
0.1243,0.1985,-0.0512,-0.0066,-0.0259,0.037,0.0005,0.0002,0.0,0.1598,52.0,6
0.267,0.1107,-0.0927,-0.0222,0.0025,0.0441,0.0,0.0004,0.0,0.2023,52.0,6
0.3316,0.0308,-0.1326,-0.0127,0.1751,0.0377,0.0005,0.0005,0.0,0.2389,52.0,6
0.0657,0.0294,-0.1155,0.0257,0.1184,0.0628,0.0001,0.1671,0.0,0.0907,52.0,6
0.4089,0.0765,-0.089,-0.0332,-0.0192,-0.0067,0.0005,0.8631,0.8267,0.2836,52.0,6
0.5391,0.0556,-0.1072,-0.0452,0.211,-0.0222,0.0001,1.0,1.0,0.3683,52.0,6
0.0231,0.3058,0.0621,0.0082,0.0398,0.0337,0.0004,1.0,1.0,0.2086,52.0,6
0.3051,0.4433,0.0947,-0.0077,-0.0272,0.0169,0.0002,1.0,1.0,0.3643,52.0,6
0.3392,0.429,-0.0798,-0.0693,0.0758,0.0716,0.0003,1.0,1.0,0.3685,52.0,6
0.2217,-0.0196,-0.1628,-0.1373,-0.0192,0.0916,0.0003,1.0,1.0,0.1838,52.0,6
0.2734,-0.1634,-0.3837,-0.2049,-0.1016,0.0508,0.0003,1.0,1.0,0.3325,52.0,6
0.2324,-0.6373,-0.3814,-0.2958,0.0926,-0.14,0.0003,1.0,1.0,0.5188,52.0,6
-0.605,-0.5242,-0.0922,0.0389,0.278,-0.3617,0.0002,1.0,1.0,0.5372,52.0,6
-1.0,0.4605,0.0843,0.1877,0.1636,-0.3409,0.0004,1.0,1.0,0.7361,52.0,6
-0.6399,0.4434,-0.0413,-0.0651,-0.0107,-0.1758,0.0002,1.0,1.0,0.5197,52.0,6
-0.3009,0.202,-0.139,-0.0517,-0.0127,0.0534,0.0004,1.0,1.0,0.2587,52.0,6
-0.2306,0.0253,-0.1733,-0.1402,-0.0464,0.1731,0.0002,1.0,1.0,0.193,52.0,6
-0.0994,-0.2985,-0.1544,-0.1973,-0.0579,0.1822,0.0005,1.0,1.0,0.2336,52.0,6
-0.0334,-0.4522,-0.1208,-0.0854,-0.04,0.1074,0.0001,1.0,1.0,0.3128,52.0,6
-0.0373,-0.3491,-0.0816,0.032,-0.0211,0.0119,0.0005,1.0,1.0,0.2403,52.0,6
0.1575,0.0106,-0.0219,0.0756,0.0215,-0.037,0.0001,0.0004,0.0,0.1062,53.0,6
0.1968,0.0434,-0.0566,0.0992,-0.0071,-0.071,0.0005,0.0002,0.0,0.1395,53.0,6
0.2687,0.0694,-0.0643,0.0635,0.0057,-0.0829,0.0001,0.0004,0.0,0.1899,53.0,6
0.2352,0.05,-0.0877,0.1006,0.0104,-0.1176,0.0004,0.0003,0.0,0.1707,53.0,6
0.2609,0.1912,-0.0717,0.1179,0.022,-0.1264,0.0001,0.0004,0.0,0.2209,53.0,6
0.2667,0.2624,-0.0218,0.0362,0.0413,-0.0417,0.0004,0.0003,0.0,0.2499,53.0,6
0.1892,0.1515,-0.0047,-0.0198,0.0326,0.0144,0.0002,0.0003,0.0,0.1616,53.0,6
0.181,0.103,-0.0125,0.0068,-0.0074,0.0182,0.0003,0.0002,0.0,0.1391,53.0,6
0.1572,0.1949,0.0095,-0.021,0.0174,0.0396,0.0003,0.0002,0.0,0.1671,53.0,6
0.059,0.1,0.0109,-0.0297,0.0002,0.064,0.0002,0.0003,0.0,0.0778,53.0,6
0.0748,0.0933,-0.0472,0.0407,-0.0316,0.0503,0.0003,0.0003,0.0,0.0857,53.0,6
0.2026,0.1924,-0.0102,0.0179,0.0048,0.0273,0.0001,0.0004,0.0,0.1864,53.0,6
0.1105,0.0659,-0.0932,0.0675,0.0923,0.046,0.0004,0.0005,0.0,0.1059,53.0,6
0.1106,0.0776,-0.1462,0.1257,0.0154,0.0391,0.0001,0.1113,0.0,0.1327,53.0,6
